participant_id,source_file,trial_index,trial_type,task,rt,response,item_id,condition,is_critical,list,segment_text,segment_index,segment_role,correct_answer,question_text,participant_answer,correct,time_elapsed
1sxehsfr3q,1sxehsfr3q-1777055587172.csv,0,html-keyboard-response,welcome,1419.0, ,,,,1,,,,,,,,1422
1sxehsfr3q,1sxehsfr3q-1777055587172.csv,1,html-keyboard-response,instructions,492.0, ,,,,1,,,,,,,,1916
1sxehsfr3q,1sxehsfr3q-1777055587172.csv,2,html-keyboard-response,reading,156.0, ,p1,practice,False,1,The baker woke up early,0.0,other,,,,,2074
1sxehsfr3q,1sxehsfr3q-1777055587172.csv,3,html-keyboard-response,reading,152.0, ,p1,practice,False,1,to prepare the bread,1.0,other,,,,,2228
1sxehsfr3q,1sxehsfr3q-1777055587172.csv,4,html-keyboard-response,reading,165.0, ,p1,practice,False,1,for the morning customers.,2.0,other,,,,,2393
1sxehsfr3q,1sxehsfr3q-1777055587172.csv,5,html-keyboard-response,sentence_break,,,p1,,,1,,,,,,,,3399
1sxehsfr3q,1sxehsfr3q-1777055587172.csv,6,html-keyboard-response,reading,415.0, ,p1,practice,False,1,He mixed the dough,4.0,other,,,,,3815
1sxehsfr3q,1sxehsfr3q-1777055587172.csv,7,html-keyboard-response,reading,210.0, ,p1,practice,False,1,and put it in the oven,5.0,other,,,,,4025
1sxehsfr3q,1sxehsfr3q-1777055587172.csv,8,html-keyboard-response,reading,133.0, ,p1,practice,False,1,before sunrise.,6.0,other,,,,,4159
1sxehsfr3q,1sxehsfr3q-1777055587172.csv,9,html-keyboard-response,reading,200.0, ,p2,practice,False,1,Anna took the bus,0.0,other,,,,,4361
1sxehsfr3q,1sxehsfr3q-1777055587172.csv,10,html-keyboard-response,reading,190.0, ,p2,practice,False,1,to the city centre,1.0,other,,,,,4552
1sxehsfr3q,1sxehsfr3q-1777055587172.csv,11,html-keyboard-response,reading,186.0, ,p2,practice,False,1,to meet her friend.,2.0,other,,,,,4739
1sxehsfr3q,1sxehsfr3q-1777055587172.csv,12,html-keyboard-response,sentence_break,,,p2,,,1,,,,,,,,5741
1sxehsfr3q,1sxehsfr3q-1777055587172.csv,13,html-keyboard-response,reading,53.0, ,p2,practice,False,1,They had lunch together,4.0,other,,,,,5795
1sxehsfr3q,1sxehsfr3q-1777055587172.csv,14,html-keyboard-response,reading,155.0, ,p2,practice,False,1,at a small Italian restaurant,5.0,other,,,,,5953
1sxehsfr3q,1sxehsfr3q-1777055587172.csv,15,html-keyboard-response,reading,182.0, ,p2,practice,False,1,near the park.,6.0,other,,,,,6136
1sxehsfr3q,1sxehsfr3q-1777055587172.csv,16,html-keyboard-response,comprehension,1135.0,j,p2,,,1,,,,no,Did Anna drive to the city centre?,no,True,7271
1sxehsfr3q,1sxehsfr3q-1777055587172.csv,17,html-keyboard-response,reading,146.0, ,p3,practice,False,1,The children played,0.0,other,,,,,7418
1sxehsfr3q,1sxehsfr3q-1777055587172.csv,18,html-keyboard-response,reading,146.0, ,p3,practice,False,1,in the garden,1.0,other,,,,,7565
1sxehsfr3q,1sxehsfr3q-1777055587172.csv,19,html-keyboard-response,reading,149.0, ,p3,practice,False,1,until it got dark.,2.0,other,,,,,7714
1sxehsfr3q,1sxehsfr3q-1777055587172.csv,20,html-keyboard-response,sentence_break,,,p3,,,1,,,,,,,,8716
1sxehsfr3q,1sxehsfr3q-1777055587172.csv,21,html-keyboard-response,reading,127124.0, ,p3,practice,False,1,Their parents called them inside,4.0,other,,,,,135842
1sxehsfr3q,1sxehsfr3q-1777055587172.csv,22,html-keyboard-response,reading,127.0, ,p3,practice,False,1,for dinner,5.0,other,,,,,135970
1sxehsfr3q,1sxehsfr3q-1777055587172.csv,23,html-keyboard-response,reading,182.0, ,p3,practice,False,1,and they came running.,6.0,other,,,,,136152
1sxehsfr3q,1sxehsfr3q-1777055587172.csv,24,html-keyboard-response,end_practice,154.0, ,,,,1,,,,,,,,136308
1sxehsfr3q,1sxehsfr3q-1777055587172.csv,25,html-keyboard-response,reading,280.0, ,f23,filler,False,1,The plumber was called,0.0,other,,,,,136589
1sxehsfr3q,1sxehsfr3q-1777055587172.csv,26,html-keyboard-response,reading,229.0, ,f23,filler,False,1,to fix a leaking pipe,1.0,other,,,,,136819
1sxehsfr3q,1sxehsfr3q-1777055587172.csv,27,html-keyboard-response,reading,432.0, ,f23,filler,False,1,in the basement.,2.0,other,,,,,137253
1sxehsfr3q,1sxehsfr3q-1777055587172.csv,28,html-keyboard-response,sentence_break,,,f23,,,1,,,,,,,,138261
1sxehsfr3q,1sxehsfr3q-1777055587172.csv,29,html-keyboard-response,reading,334.0, ,f23,filler,False,1,He replaced the old fitting,4.0,other,,,,,138596
1sxehsfr3q,1sxehsfr3q-1777055587172.csv,30,html-keyboard-response,reading,2211.0, ,f23,filler,False,1,with a new copper joint,5.0,other,,,,,140808
1sxehsfr3q,1sxehsfr3q-1777055587172.csv,31,html-keyboard-response,reading,44929.0, ,f23,filler,False,1,and tested the pressure.,6.0,other,,,,,185739
1sxehsfr3q,1sxehsfr3q-1777055587172.csv,32,html-keyboard-response,reading,456.0, ,16,upper_bound_only_some,True,1,Tom's sister had promised,0.0,other,,,,,186195
1sxehsfr3q,1sxehsfr3q-1777055587172.csv,33,html-keyboard-response,reading,242.0, ,16,upper_bound_only_some,True,1,that she would wrap,1.0,other,,,,,186438
1sxehsfr3q,1sxehsfr3q-1777055587172.csv,34,html-keyboard-response,reading,215.0, ,16,upper_bound_only_some,True,1,all the presents,2.0,other,,,,,186654
1sxehsfr3q,1sxehsfr3q-1777055587172.csv,35,html-keyboard-response,reading,212.0, ,16,upper_bound_only_some,True,1,for the birthday party.,3.0,other,,,,,186867
1sxehsfr3q,1sxehsfr3q-1777055587172.csv,36,html-keyboard-response,sentence_break,,,16,,,1,,,,,,,,187870
1sxehsfr3q,1sxehsfr3q-1777055587172.csv,37,html-keyboard-response,reading,2998.0, ,16,upper_bound_only_some,True,1,She told him,5.0,other,,,,,190869
1sxehsfr3q,1sxehsfr3q-1777055587172.csv,38,html-keyboard-response,reading,124.0, ,16,upper_bound_only_some,True,1,that she had wrapped,6.0,other,,,,,190994
1sxehsfr3q,1sxehsfr3q-1777055587172.csv,39,html-keyboard-response,reading,159.0, ,16,upper_bound_only_some,True,1,only some of the presents.,7.0,trigger,,,,,191155
1sxehsfr3q,1sxehsfr3q-1777055587172.csv,40,html-keyboard-response,sentence_break,,,16,,,1,,,,,,,,192157
1sxehsfr3q,1sxehsfr3q-1777055587172.csv,41,html-keyboard-response,reading,137.0, ,16,upper_bound_only_some,True,1,The others,9.0,target,,,,,192296
1sxehsfr3q,1sxehsfr3q-1777055587172.csv,42,html-keyboard-response,reading,226.0, ,16,upper_bound_only_some,True,1,were hidden away,10.0,post_target,,,,,192524
1sxehsfr3q,1sxehsfr3q-1777055587172.csv,43,html-keyboard-response,reading,152.0, ,16,upper_bound_only_some,True,1,in the bedroom cupboard.,11.0,other,,,,,192678
1sxehsfr3q,1sxehsfr3q-1777055587172.csv,44,html-keyboard-response,comprehension,860.0,f,16,,,1,,,,no,Was Tom's sister wrapping presents for a wedding?,yes,False,193539
1sxehsfr3q,1sxehsfr3q-1777055587172.csv,45,html-keyboard-response,reading,148.0, ,8,lower_bound_some,True,1,John came home from work,0.0,other,,,,,193688
1sxehsfr3q,1sxehsfr3q-1777055587172.csv,46,html-keyboard-response,reading,174.0, ,8,lower_bound_some,True,1,and found his wife,1.0,other,,,,,193863
1sxehsfr3q,1sxehsfr3q-1777055587172.csv,47,html-keyboard-response,reading,161.0, ,8,lower_bound_some,True,1,busy in the garden.,2.0,other,,,,,194025
1sxehsfr3q,1sxehsfr3q-1777055587172.csv,48,html-keyboard-response,sentence_break,,,8,,,1,,,,,,,,195027
1sxehsfr3q,1sxehsfr3q-1777055587172.csv,49,html-keyboard-response,reading,1183.0, ,8,lower_bound_some,True,1,She told him,4.0,other,,,,,196211
1sxehsfr3q,1sxehsfr3q-1777055587172.csv,50,html-keyboard-response,reading,145.0, ,8,lower_bound_some,True,1,that she had planted,5.0,other,,,,,196357
1sxehsfr3q,1sxehsfr3q-1777055587172.csv,51,html-keyboard-response,reading,166.0, ,8,lower_bound_some,True,1,some of the flowers.,6.0,trigger,,,,,196524
1sxehsfr3q,1sxehsfr3q-1777055587172.csv,52,html-keyboard-response,sentence_break,,,8,,,1,,,,,,,,197527
1sxehsfr3q,1sxehsfr3q-1777055587172.csv,53,html-keyboard-response,reading,318.0, ,8,lower_bound_some,True,1,The others,8.0,target,,,,,197845
1sxehsfr3q,1sxehsfr3q-1777055587172.csv,54,html-keyboard-response,reading,169.0, ,8,lower_bound_some,True,1,were still in pots,9.0,post_target,,,,,198016
1sxehsfr3q,1sxehsfr3q-1777055587172.csv,55,html-keyboard-response,reading,133.0, ,8,lower_bound_some,True,1,on the balcony.,10.0,other,,,,,198151
1sxehsfr3q,1sxehsfr3q-1777055587172.csv,56,html-keyboard-response,reading,165.0, ,15,upper_bound_some,True,1,The conference organiser had asked Maria,0.0,other,,,,,198317
1sxehsfr3q,1sxehsfr3q-1777055587172.csv,57,html-keyboard-response,reading,212.0, ,15,upper_bound_some,True,1,to book,1.0,other,,,,,198530
1sxehsfr3q,1sxehsfr3q-1777055587172.csv,58,html-keyboard-response,reading,143.0, ,15,upper_bound_some,True,1,all the hotel rooms,2.0,other,,,,,198674
1sxehsfr3q,1sxehsfr3q-1777055587172.csv,59,html-keyboard-response,reading,167.0, ,15,upper_bound_some,True,1,for the visiting delegation.,3.0,other,,,,,198841
1sxehsfr3q,1sxehsfr3q-1777055587172.csv,60,html-keyboard-response,sentence_break,,,15,,,1,,,,,,,,199844
1sxehsfr3q,1sxehsfr3q-1777055587172.csv,61,html-keyboard-response,reading,1367.0, ,15,upper_bound_some,True,1,Maria explained,5.0,other,,,,,201212
1sxehsfr3q,1sxehsfr3q-1777055587172.csv,62,html-keyboard-response,reading,142.0, ,15,upper_bound_some,True,1,that she had booked,6.0,other,,,,,201356
1sxehsfr3q,1sxehsfr3q-1777055587172.csv,63,html-keyboard-response,reading,160.0, ,15,upper_bound_some,True,1,some of the hotel rooms.,7.0,trigger,,,,,201517
1sxehsfr3q,1sxehsfr3q-1777055587172.csv,64,html-keyboard-response,sentence_break,,,15,,,1,,,,,,,,202518
1sxehsfr3q,1sxehsfr3q-1777055587172.csv,65,html-keyboard-response,reading,159.0, ,15,upper_bound_some,True,1,The rest,9.0,target,,,,,202678
1sxehsfr3q,1sxehsfr3q-1777055587172.csv,66,html-keyboard-response,reading,195.0, ,15,upper_bound_some,True,1,were on a waiting list,10.0,post_target,,,,,202874
1sxehsfr3q,1sxehsfr3q-1777055587172.csv,67,html-keyboard-response,reading,182.0, ,15,upper_bound_some,True,1,at a different hotel.,11.0,other,,,,,203058
1sxehsfr3q,1sxehsfr3q-1777055587172.csv,68,html-keyboard-response,reading,178.0, ,11,lower_bound_some,True,1,The artist returned home,0.0,other,,,,,203237
1sxehsfr3q,1sxehsfr3q-1777055587172.csv,69,html-keyboard-response,reading,148.0, ,11,lower_bound_some,True,1,after a long and busy weekend,1.0,other,,,,,203386
1sxehsfr3q,1sxehsfr3q-1777055587172.csv,70,html-keyboard-response,reading,173.0, ,11,lower_bound_some,True,1,at the annual exhibition.,2.0,other,,,,,203560
1sxehsfr3q,1sxehsfr3q-1777055587172.csv,71,html-keyboard-response,sentence_break,,,11,,,1,,,,,,,,204563
1sxehsfr3q,1sxehsfr3q-1777055587172.csv,72,html-keyboard-response,reading,215.0, ,11,lower_bound_some,True,1,She mentioned,4.0,other,,,,,204780
1sxehsfr3q,1sxehsfr3q-1777055587172.csv,73,html-keyboard-response,reading,158.0, ,11,lower_bound_some,True,1,that she had sold,5.0,other,,,,,204939
1sxehsfr3q,1sxehsfr3q-1777055587172.csv,74,html-keyboard-response,reading,200.0, ,11,lower_bound_some,True,1,some of her paintings.,6.0,trigger,,,,,205140
1sxehsfr3q,1sxehsfr3q-1777055587172.csv,75,html-keyboard-response,sentence_break,,,11,,,1,,,,,,,,206142
1sxehsfr3q,1sxehsfr3q-1777055587172.csv,76,html-keyboard-response,reading,1637.0, ,11,lower_bound_some,True,1,The rest,8.0,target,,,,,207780
1sxehsfr3q,1sxehsfr3q-1777055587172.csv,77,html-keyboard-response,reading,146.0, ,11,lower_bound_some,True,1,were still on display,9.0,post_target,,,,,207927
1sxehsfr3q,1sxehsfr3q-1777055587172.csv,78,html-keyboard-response,reading,162.0, ,11,lower_bound_some,True,1,at the gallery.,10.0,other,,,,,208090
1sxehsfr3q,1sxehsfr3q-1777055587172.csv,79,html-keyboard-response,reading,122.0, ,f26,filler,False,1,The architect presented,0.0,other,,,,,208213
1sxehsfr3q,1sxehsfr3q-1777055587172.csv,80,html-keyboard-response,reading,113.0, ,f26,filler,False,1,her design for the new library,1.0,other,,,,,208328
1sxehsfr3q,1sxehsfr3q-1777055587172.csv,81,html-keyboard-response,reading,125.0, ,f26,filler,False,1,to the town council.,2.0,other,,,,,208454
1sxehsfr3q,1sxehsfr3q-1777055587172.csv,82,html-keyboard-response,sentence_break,,,f26,,,1,,,,,,,,209455
1sxehsfr3q,1sxehsfr3q-1777055587172.csv,83,html-keyboard-response,reading,7.0, ,f26,filler,False,1,The councillors were enthusiastic,4.0,other,,,,,209464
1sxehsfr3q,1sxehsfr3q-1777055587172.csv,84,html-keyboard-response,reading,204.0, ,f26,filler,False,1,and approved the project,5.0,other,,,,,209669
1sxehsfr3q,1sxehsfr3q-1777055587172.csv,85,html-keyboard-response,reading,161.0, ,f26,filler,False,1,without any objections.,6.0,other,,,,,209832
1sxehsfr3q,1sxehsfr3q-1777055587172.csv,86,html-keyboard-response,comprehension,4054.0,j,f26,,,1,,,,yes,Did the council approve the library project?,no,False,213887
1sxehsfr3q,1sxehsfr3q-1777055587172.csv,87,html-keyboard-response,reading,240.0, ,f20,filler,False,1,The taxi driver took,0.0,other,,,,,214128
1sxehsfr3q,1sxehsfr3q-1777055587172.csv,88,html-keyboard-response,reading,182.0, ,f20,filler,False,1,a shortcut through the back streets,1.0,other,,,,,214311
1sxehsfr3q,1sxehsfr3q-1777055587172.csv,89,html-keyboard-response,reading,334.0, ,f20,filler,False,1,to avoid the traffic.,2.0,other,,,,,214646
1sxehsfr3q,1sxehsfr3q-1777055587172.csv,90,html-keyboard-response,sentence_break,,,f20,,,1,,,,,,,,215649
1sxehsfr3q,1sxehsfr3q-1777055587172.csv,91,html-keyboard-response,reading,316.0, ,f20,filler,False,1,They arrived at the airport,4.0,other,,,,,215966
1sxehsfr3q,1sxehsfr3q-1777055587172.csv,92,html-keyboard-response,reading,185.0, ,f20,filler,False,1,with plenty of time,5.0,other,,,,,216152
1sxehsfr3q,1sxehsfr3q-1777055587172.csv,93,html-keyboard-response,reading,248.0, ,f20,filler,False,1,to catch the flight.,6.0,other,,,,,216400
1sxehsfr3q,1sxehsfr3q-1777055587172.csv,94,html-keyboard-response,reading,233.0, ,13,upper_bound_only_some,True,1,The hotel manager came to find out,0.0,other,,,,,216634
1sxehsfr3q,1sxehsfr3q-1777055587172.csv,95,html-keyboard-response,reading,203.0, ,13,upper_bound_only_some,True,1,whether the cleaner had finished,1.0,other,,,,,216838
1sxehsfr3q,1sxehsfr3q-1777055587172.csv,96,html-keyboard-response,reading,269.0, ,13,upper_bound_only_some,True,1,all the rooms,2.0,other,,,,,217108
1sxehsfr3q,1sxehsfr3q-1777055587172.csv,97,html-keyboard-response,reading,230.0, ,13,upper_bound_only_some,True,1,on the third floor.,3.0,other,,,,,217340
1sxehsfr3q,1sxehsfr3q-1777055587172.csv,98,html-keyboard-response,sentence_break,,,13,,,1,,,,,,,,218342
1sxehsfr3q,1sxehsfr3q-1777055587172.csv,99,html-keyboard-response,reading,1387.0, ,13,upper_bound_only_some,True,1,The cleaner replied,5.0,other,,,,,219731
1sxehsfr3q,1sxehsfr3q-1777055587172.csv,100,html-keyboard-response,reading,131.0, ,13,upper_bound_only_some,True,1,that she had cleaned,6.0,other,,,,,219863
1sxehsfr3q,1sxehsfr3q-1777055587172.csv,101,html-keyboard-response,reading,161.0, ,13,upper_bound_only_some,True,1,only some of the rooms.,7.0,trigger,,,,,220025
1sxehsfr3q,1sxehsfr3q-1777055587172.csv,102,html-keyboard-response,sentence_break,,,13,,,1,,,,,,,,221030
1sxehsfr3q,1sxehsfr3q-1777055587172.csv,103,html-keyboard-response,reading,621.0, ,13,upper_bound_only_some,True,1,The rest,9.0,target,,,,,221652
1sxehsfr3q,1sxehsfr3q-1777055587172.csv,104,html-keyboard-response,reading,229.0, ,13,upper_bound_only_some,True,1,were still occupied,10.0,post_target,,,,,221882
1sxehsfr3q,1sxehsfr3q-1777055587172.csv,105,html-keyboard-response,reading,3603.0, ,13,upper_bound_only_some,True,1,by late checkout guests.,11.0,other,,,,,225485
1sxehsfr3q,1sxehsfr3q-1777055587172.csv,106,html-keyboard-response,reading,147.0, ,f33,filler,False,1,The volunteers cleaned up,0.0,other,,,,,225633
1sxehsfr3q,1sxehsfr3q-1777055587172.csv,107,html-keyboard-response,reading,123.0, ,f33,filler,False,1,the beach after the storm,1.0,other,,,,,225758
1sxehsfr3q,1sxehsfr3q-1777055587172.csv,108,html-keyboard-response,reading,123.0, ,f33,filler,False,1,picking up debris and litter.,2.0,other,,,,,225882
1sxehsfr3q,1sxehsfr3q-1777055587172.csv,109,html-keyboard-response,sentence_break,,,f33,,,1,,,,,,,,226886
1sxehsfr3q,1sxehsfr3q-1777055587172.csv,110,html-keyboard-response,reading,149.0, ,f33,filler,False,1,By the end of the day,4.0,other,,,,,227037
1sxehsfr3q,1sxehsfr3q-1777055587172.csv,111,html-keyboard-response,reading,237.0, ,f33,filler,False,1,the shoreline looked,5.0,other,,,,,227275
1sxehsfr3q,1sxehsfr3q-1777055587172.csv,112,html-keyboard-response,reading,144.0, ,f33,filler,False,1,much better than before.,6.0,other,,,,,227420
1sxehsfr3q,1sxehsfr3q-1777055587172.csv,113,html-keyboard-response,reading,168.0, ,12,upper_bound_some,True,1,The manager needed to confirm,0.0,other,,,,,227589
1sxehsfr3q,1sxehsfr3q-1777055587172.csv,114,html-keyboard-response,reading,146.0, ,12,upper_bound_some,True,1,that Helen had trained,1.0,other,,,,,227737
1sxehsfr3q,1sxehsfr3q-1777055587172.csv,115,html-keyboard-response,reading,113.0, ,12,upper_bound_some,True,1,all the new employees,2.0,other,,,,,227851
1sxehsfr3q,1sxehsfr3q-1777055587172.csv,116,html-keyboard-response,reading,99.0, ,12,upper_bound_some,True,1,on the safety protocol.,3.0,other,,,,,227951
1sxehsfr3q,1sxehsfr3q-1777055587172.csv,117,html-keyboard-response,sentence_break,,,12,,,1,,,,,,,,228953
1sxehsfr3q,1sxehsfr3q-1777055587172.csv,118,html-keyboard-response,reading,3683.0, ,12,upper_bound_some,True,1,Helen explained,5.0,other,,,,,232636
1sxehsfr3q,1sxehsfr3q-1777055587172.csv,119,html-keyboard-response,reading,132.0, ,12,upper_bound_some,True,1,that she had trained,6.0,other,,,,,232768
1sxehsfr3q,1sxehsfr3q-1777055587172.csv,120,html-keyboard-response,reading,143.0, ,12,upper_bound_some,True,1,some of the new employees.,7.0,trigger,,,,,232912
1sxehsfr3q,1sxehsfr3q-1777055587172.csv,121,html-keyboard-response,sentence_break,,,12,,,1,,,,,,,,233914
1sxehsfr3q,1sxehsfr3q-1777055587172.csv,122,html-keyboard-response,reading,139.0, ,12,upper_bound_some,True,1,The others,9.0,target,,,,,234055
1sxehsfr3q,1sxehsfr3q-1777055587172.csv,123,html-keyboard-response,reading,230.0, ,12,upper_bound_some,True,1,would complete their training,10.0,post_target,,,,,234286
1sxehsfr3q,1sxehsfr3q-1777055587172.csv,124,html-keyboard-response,reading,171.0, ,12,upper_bound_some,True,1,the following week.,11.0,other,,,,,234458
1sxehsfr3q,1sxehsfr3q-1777055587172.csv,125,html-keyboard-response,reading,187.0, ,18,upper_bound_some,True,1,The HR manager asked the panel,0.0,other,,,,,234647
1sxehsfr3q,1sxehsfr3q-1777055587172.csv,126,html-keyboard-response,reading,206.0, ,18,upper_bound_some,True,1,whether they had managed to interview,1.0,other,,,,,234853
1sxehsfr3q,1sxehsfr3q-1777055587172.csv,127,html-keyboard-response,reading,537.0, ,18,upper_bound_some,True,1,all the candidates,2.0,other,,,,,235391
1sxehsfr3q,1sxehsfr3q-1777055587172.csv,128,html-keyboard-response,reading,160.0, ,18,upper_bound_some,True,1,for the open position.,3.0,other,,,,,235553
1sxehsfr3q,1sxehsfr3q-1777055587172.csv,129,html-keyboard-response,sentence_break,,,18,,,1,,,,,,,,236557
1sxehsfr3q,1sxehsfr3q-1777055587172.csv,130,html-keyboard-response,reading,385.0, ,18,upper_bound_some,True,1,The panel chair replied,5.0,other,,,,,236943
1sxehsfr3q,1sxehsfr3q-1777055587172.csv,131,html-keyboard-response,reading,171.0, ,18,upper_bound_some,True,1,that they had interviewed,6.0,other,,,,,237116
1sxehsfr3q,1sxehsfr3q-1777055587172.csv,132,html-keyboard-response,reading,175.0, ,18,upper_bound_some,True,1,some of the candidates.,7.0,trigger,,,,,237292
1sxehsfr3q,1sxehsfr3q-1777055587172.csv,133,html-keyboard-response,sentence_break,,,18,,,1,,,,,,,,238308
1sxehsfr3q,1sxehsfr3q-1777055587172.csv,134,html-keyboard-response,reading,78.0, ,18,upper_bound_some,True,1,The others,9.0,target,,,,,238387
1sxehsfr3q,1sxehsfr3q-1777055587172.csv,135,html-keyboard-response,reading,224.0, ,18,upper_bound_some,True,1,were scheduled to come in,10.0,post_target,,,,,238613
1sxehsfr3q,1sxehsfr3q-1777055587172.csv,136,html-keyboard-response,reading,164.0, ,18,upper_bound_some,True,1,the following afternoon.,11.0,other,,,,,238777
1sxehsfr3q,1sxehsfr3q-1777055587172.csv,137,html-keyboard-response,reading,200.0, ,f4,filler,False,1,Tom decided to renovate,0.0,other,,,,,238978
1sxehsfr3q,1sxehsfr3q-1777055587172.csv,138,html-keyboard-response,reading,185.0, ,f4,filler,False,1,his kitchen over the weekend.,1.0,other,,,,,239164
1sxehsfr3q,1sxehsfr3q-1777055587172.csv,139,html-keyboard-response,sentence_break,,,f4,,,1,,,,,,,,240167
1sxehsfr3q,1sxehsfr3q-1777055587172.csv,140,html-keyboard-response,reading,12.0, ,f4,filler,False,1,He painted the walls,3.0,other,,,,,240180
1sxehsfr3q,1sxehsfr3q-1777055587172.csv,141,html-keyboard-response,reading,295.0, ,f4,filler,False,1,a bright shade of yellow,4.0,other,,,,,240477
1sxehsfr3q,1sxehsfr3q-1777055587172.csv,142,html-keyboard-response,reading,349.0, ,f4,filler,False,1,and replaced the old tiles.,5.0,other,,,,,240826
1sxehsfr3q,1sxehsfr3q-1777055587172.csv,143,html-keyboard-response,reading,174.0, ,10,upper_bound_only_some,True,1,Anna had told her husband,0.0,other,,,,,241001
1sxehsfr3q,1sxehsfr3q-1777055587172.csv,144,html-keyboard-response,reading,246.0, ,10,upper_bound_only_some,True,1,that he needed to wash,1.0,other,,,,,241249
1sxehsfr3q,1sxehsfr3q-1777055587172.csv,145,html-keyboard-response,reading,275.0, ,10,upper_bound_only_some,True,1,all the shirts,2.0,other,,,,,241525
1sxehsfr3q,1sxehsfr3q-1777055587172.csv,146,html-keyboard-response,reading,243.0, ,10,upper_bound_only_some,True,1,before the business trip.,3.0,other,,,,,241769
1sxehsfr3q,1sxehsfr3q-1777055587172.csv,147,html-keyboard-response,sentence_break,,,10,,,1,,,,,,,,242775
1sxehsfr3q,1sxehsfr3q-1777055587172.csv,148,html-keyboard-response,reading,327.0, ,10,upper_bound_only_some,True,1,He replied,5.0,other,,,,,243102
1sxehsfr3q,1sxehsfr3q-1777055587172.csv,149,html-keyboard-response,reading,174.0, ,10,upper_bound_only_some,True,1,that he had washed,6.0,other,,,,,243277
1sxehsfr3q,1sxehsfr3q-1777055587172.csv,150,html-keyboard-response,reading,209.0, ,10,upper_bound_only_some,True,1,only some of the shirts.,7.0,trigger,,,,,243487
1sxehsfr3q,1sxehsfr3q-1777055587172.csv,151,html-keyboard-response,sentence_break,,,10,,,1,,,,,,,,244491
1sxehsfr3q,1sxehsfr3q-1777055587172.csv,152,html-keyboard-response,reading,114.0, ,10,upper_bound_only_some,True,1,The others,9.0,target,,,,,244606
1sxehsfr3q,1sxehsfr3q-1777055587172.csv,153,html-keyboard-response,reading,209.0, ,10,upper_bound_only_some,True,1,were still hanging,10.0,post_target,,,,,244817
1sxehsfr3q,1sxehsfr3q-1777055587172.csv,154,html-keyboard-response,reading,162.0, ,10,upper_bound_only_some,True,1,in the wardrobe.,11.0,other,,,,,244980
1sxehsfr3q,1sxehsfr3q-1777055587172.csv,155,html-keyboard-response,reading,217.0, ,5,lower_bound_some,True,1,Sarah was on the phone all morning,0.0,other,,,,,245199
1sxehsfr3q,1sxehsfr3q-1777055587172.csv,156,html-keyboard-response,reading,239.0, ,5,lower_bound_some,True,1,making arrangements,1.0,other,,,,,245439
1sxehsfr3q,1sxehsfr3q-1777055587172.csv,157,html-keyboard-response,reading,470.0, ,5,lower_bound_some,True,1,for a farewell party.,2.0,other,,,,,245910
1sxehsfr3q,1sxehsfr3q-1777055587172.csv,158,html-keyboard-response,sentence_break,,,5,,,1,,,,,,,,246912
1sxehsfr3q,1sxehsfr3q-1777055587172.csv,159,html-keyboard-response,reading,1732.0, ,5,lower_bound_some,True,1,She mentioned,4.0,other,,,,,248646
1sxehsfr3q,1sxehsfr3q-1777055587172.csv,160,html-keyboard-response,reading,213.0, ,5,lower_bound_some,True,1,that she had invited,5.0,other,,,,,248860
1sxehsfr3q,1sxehsfr3q-1777055587172.csv,161,html-keyboard-response,reading,206.0, ,5,lower_bound_some,True,1,some of her colleagues.,6.0,trigger,,,,,249067
1sxehsfr3q,1sxehsfr3q-1777055587172.csv,162,html-keyboard-response,sentence_break,,,5,,,1,,,,,,,,250070
1sxehsfr3q,1sxehsfr3q-1777055587172.csv,163,html-keyboard-response,reading,156.0, ,5,lower_bound_some,True,1,The others,8.0,target,,,,,250227
1sxehsfr3q,1sxehsfr3q-1777055587172.csv,164,html-keyboard-response,reading,149.0, ,5,lower_bound_some,True,1,had already made plans,9.0,post_target,,,,,250377
1sxehsfr3q,1sxehsfr3q-1777055587172.csv,165,html-keyboard-response,reading,146.0, ,5,lower_bound_some,True,1,for the evening.,10.0,other,,,,,250524
1sxehsfr3q,1sxehsfr3q-1777055587172.csv,166,html-keyboard-response,reading,170.0, ,f27,filler,False,1,Peter forgot,0.0,other,,,,,250695
1sxehsfr3q,1sxehsfr3q-1777055587172.csv,167,html-keyboard-response,reading,180.0, ,f27,filler,False,1,to set his alarm,1.0,other,,,,,250877
1sxehsfr3q,1sxehsfr3q-1777055587172.csv,168,html-keyboard-response,reading,171.0, ,f27,filler,False,1,the night before the interview.,2.0,other,,,,,251048
1sxehsfr3q,1sxehsfr3q-1777055587172.csv,169,html-keyboard-response,sentence_break,,,f27,,,1,,,,,,,,252050
1sxehsfr3q,1sxehsfr3q-1777055587172.csv,170,html-keyboard-response,reading,47.0, ,f27,filler,False,1,He woke up late,4.0,other,,,,,252098
1sxehsfr3q,1sxehsfr3q-1777055587172.csv,171,html-keyboard-response,reading,624.0, ,f27,filler,False,1,and had to rush,5.0,other,,,,,252724
1sxehsfr3q,1sxehsfr3q-1777055587172.csv,172,html-keyboard-response,reading,155.0, ,f27,filler,False,1,to get to the office on time.,6.0,other,,,,,252880
1sxehsfr3q,1sxehsfr3q-1777055587172.csv,173,html-keyboard-response,reading,135.0, ,6,upper_bound_some,True,1,The professor was trying to determine,0.0,other,,,,,253016
1sxehsfr3q,1sxehsfr3q-1777055587172.csv,174,html-keyboard-response,reading,146.0, ,6,upper_bound_some,True,1,whether Tom had read,1.0,other,,,,,253162
1sxehsfr3q,1sxehsfr3q-1777055587172.csv,175,html-keyboard-response,reading,201.0, ,6,upper_bound_some,True,1,all the chapters,2.0,other,,,,,253363
1sxehsfr3q,1sxehsfr3q-1777055587172.csv,176,html-keyboard-response,reading,183.0, ,6,upper_bound_some,True,1,before the exam.,3.0,other,,,,,253547
1sxehsfr3q,1sxehsfr3q-1777055587172.csv,177,html-keyboard-response,sentence_break,,,6,,,1,,,,,,,,254550
1sxehsfr3q,1sxehsfr3q-1777055587172.csv,178,html-keyboard-response,reading,22.0, ,6,upper_bound_some,True,1,Tom admitted,5.0,other,,,,,254573
1sxehsfr3q,1sxehsfr3q-1777055587172.csv,179,html-keyboard-response,reading,283.0, ,6,upper_bound_some,True,1,that he had read,6.0,other,,,,,254856
1sxehsfr3q,1sxehsfr3q-1777055587172.csv,180,html-keyboard-response,reading,181.0, ,6,upper_bound_some,True,1,some of the chapters.,7.0,trigger,,,,,255038
1sxehsfr3q,1sxehsfr3q-1777055587172.csv,181,html-keyboard-response,sentence_break,,,6,,,1,,,,,,,,256040
1sxehsfr3q,1sxehsfr3q-1777055587172.csv,182,html-keyboard-response,reading,184.0, ,6,upper_bound_some,True,1,The rest,9.0,target,,,,,256225
1sxehsfr3q,1sxehsfr3q-1777055587172.csv,183,html-keyboard-response,reading,201.0, ,6,upper_bound_some,True,1,were too difficult,10.0,post_target,,,,,256426
1sxehsfr3q,1sxehsfr3q-1777055587172.csv,184,html-keyboard-response,reading,211.0, ,6,upper_bound_some,True,1,to finish before the deadline.,11.0,other,,,,,256638
1sxehsfr3q,1sxehsfr3q-1777055587172.csv,185,html-keyboard-response,reading,180.0, ,f14,filler,False,1,The couple decided,0.0,other,,,,,256819
1sxehsfr3q,1sxehsfr3q-1777055587172.csv,186,html-keyboard-response,reading,197.0, ,f14,filler,False,1,to adopt a rescue dog,1.0,other,,,,,257017
1sxehsfr3q,1sxehsfr3q-1777055587172.csv,187,html-keyboard-response,reading,192.0, ,f14,filler,False,1,from the local shelter.,2.0,other,,,,,257210
1sxehsfr3q,1sxehsfr3q-1777055587172.csv,188,html-keyboard-response,sentence_break,,,f14,,,1,,,,,,,,258212
1sxehsfr3q,1sxehsfr3q-1777055587172.csv,189,html-keyboard-response,reading,2282.0, ,f14,filler,False,1,They named the puppy Max,4.0,other,,,,,260496
1sxehsfr3q,1sxehsfr3q-1777055587172.csv,190,html-keyboard-response,reading,81.0, ,f14,filler,False,1,and took him home,5.0,other,,,,,260578
1sxehsfr3q,1sxehsfr3q-1777055587172.csv,191,html-keyboard-response,reading,182.0, ,f14,filler,False,1,that same afternoon.,6.0,other,,,,,260761
1sxehsfr3q,1sxehsfr3q-1777055587172.csv,192,html-keyboard-response,comprehension,1160.0,j,f14,,,1,,,,no,Did the couple buy the dog from a breeder?,no,True,261922
1sxehsfr3q,1sxehsfr3q-1777055587172.csv,193,html-keyboard-response,reading,438.0, ,f13,filler,False,1,The dentist recommended,0.0,other,,,,,262361
1sxehsfr3q,1sxehsfr3q-1777055587172.csv,194,html-keyboard-response,reading,158.0, ,f13,filler,False,1,that James brush his teeth,1.0,other,,,,,262520
1sxehsfr3q,1sxehsfr3q-1777055587172.csv,195,html-keyboard-response,reading,186.0, ,f13,filler,False,1,three times a day.,2.0,other,,,,,262707
1sxehsfr3q,1sxehsfr3q-1777055587172.csv,196,html-keyboard-response,sentence_break,,,f13,,,1,,,,,,,,263709
1sxehsfr3q,1sxehsfr3q-1777055587172.csv,197,html-keyboard-response,reading,20.0, ,f13,filler,False,1,James bought,4.0,other,,,,,263730
1sxehsfr3q,1sxehsfr3q-1777055587172.csv,198,html-keyboard-response,reading,6855.0, ,f13,filler,False,1,a new electric toothbrush,5.0,other,,,,,270586
1sxehsfr3q,1sxehsfr3q-1777055587172.csv,199,html-keyboard-response,reading,145.0, ,f13,filler,False,1,and started following the advice.,6.0,other,,,,,270733
1sxehsfr3q,1sxehsfr3q-1777055587172.csv,200,html-keyboard-response,reading,172.0, ,f11,filler,False,1,The professor assigned,0.0,other,,,,,270905
1sxehsfr3q,1sxehsfr3q-1777055587172.csv,201,html-keyboard-response,reading,193.0, ,f11,filler,False,1,a challenging essay topic,1.0,other,,,,,271100
1sxehsfr3q,1sxehsfr3q-1777055587172.csv,202,html-keyboard-response,reading,251.0, ,f11,filler,False,1,for the final exam.,2.0,other,,,,,271352
1sxehsfr3q,1sxehsfr3q-1777055587172.csv,203,html-keyboard-response,sentence_break,,,f11,,,1,,,,,,,,272357
1sxehsfr3q,1sxehsfr3q-1777055587172.csv,204,html-keyboard-response,reading,635.0, ,f11,filler,False,1,The students spent the weekend,4.0,other,,,,,272994
1sxehsfr3q,1sxehsfr3q-1777055587172.csv,205,html-keyboard-response,reading,187.0, ,f11,filler,False,1,researching and writing,5.0,other,,,,,273182
1sxehsfr3q,1sxehsfr3q-1777055587172.csv,206,html-keyboard-response,reading,144.0, ,f11,filler,False,1,their arguments carefully.,6.0,other,,,,,273328
1sxehsfr3q,1sxehsfr3q-1777055587172.csv,207,html-keyboard-response,reading,232.0, ,f28,filler,False,1,The photographer set up,0.0,other,,,,,273561
1sxehsfr3q,1sxehsfr3q-1777055587172.csv,208,html-keyboard-response,reading,526.0, ,f28,filler,False,1,her equipment on the hilltop,1.0,other,,,,,274088
1sxehsfr3q,1sxehsfr3q-1777055587172.csv,209,html-keyboard-response,reading,281.0, ,f28,filler,False,1,just before dawn.,2.0,other,,,,,274370
1sxehsfr3q,1sxehsfr3q-1777055587172.csv,210,html-keyboard-response,sentence_break,,,f28,,,1,,,,,,,,275373
1sxehsfr3q,1sxehsfr3q-1777055587172.csv,211,html-keyboard-response,reading,107.0, ,f28,filler,False,1,She waited patiently,4.0,other,,,,,275481
1sxehsfr3q,1sxehsfr3q-1777055587172.csv,212,html-keyboard-response,reading,178.0, ,f28,filler,False,1,and captured a stunning image,5.0,other,,,,,275660
1sxehsfr3q,1sxehsfr3q-1777055587172.csv,213,html-keyboard-response,reading,156.0, ,f28,filler,False,1,of the sunrise over the valley.,6.0,other,,,,,275817
1sxehsfr3q,1sxehsfr3q-1777055587172.csv,214,html-keyboard-response,reading,294.0, ,f16,filler,False,1,The children built,0.0,other,,,,,276111
1sxehsfr3q,1sxehsfr3q-1777055587172.csv,215,html-keyboard-response,reading,168.0, ,f16,filler,False,1,a snowman in the front yard,1.0,other,,,,,276281
1sxehsfr3q,1sxehsfr3q-1777055587172.csv,216,html-keyboard-response,reading,174.0, ,f16,filler,False,1,during the winter holidays.,2.0,other,,,,,276455
1sxehsfr3q,1sxehsfr3q-1777055587172.csv,217,html-keyboard-response,sentence_break,,,f16,,,1,,,,,,,,277457
1sxehsfr3q,1sxehsfr3q-1777055587172.csv,218,html-keyboard-response,reading,5700.0, ,f16,filler,False,1,They used a carrot,4.0,other,,,,,283158
1sxehsfr3q,1sxehsfr3q-1777055587172.csv,219,html-keyboard-response,reading,145.0, ,f16,filler,False,1,for the nose,5.0,other,,,,,283304
1sxehsfr3q,1sxehsfr3q-1777055587172.csv,220,html-keyboard-response,reading,168.0, ,f16,filler,False,1,and buttons for the eyes.,6.0,other,,,,,283473
1sxehsfr3q,1sxehsfr3q-1777055587172.csv,221,html-keyboard-response,comprehension,848.0,f,f16,,,1,,,,yes,Did the children use a carrot for the nose?,yes,True,284322
1sxehsfr3q,1sxehsfr3q-1777055587172.csv,222,html-keyboard-response,reading,224.0, ,f32,filler,False,1,The tailor measured,0.0,other,,,,,284547
1sxehsfr3q,1sxehsfr3q-1777055587172.csv,223,html-keyboard-response,reading,153.0, ,f32,filler,False,1,the fabric carefully,1.0,other,,,,,284701
1sxehsfr3q,1sxehsfr3q-1777055587172.csv,224,html-keyboard-response,reading,163.0, ,f32,filler,False,1,before making the first cut.,2.0,other,,,,,284865
1sxehsfr3q,1sxehsfr3q-1777055587172.csv,225,html-keyboard-response,sentence_break,,,f32,,,1,,,,,,,,285868
1sxehsfr3q,1sxehsfr3q-1777055587172.csv,226,html-keyboard-response,reading,16871.0, ,f32,filler,False,1,He wanted to ensure,4.0,other,,,,,302741
1sxehsfr3q,1sxehsfr3q-1777055587172.csv,227,html-keyboard-response,reading,132.0, ,f32,filler,False,1,that the suit,5.0,other,,,,,302874
1sxehsfr3q,1sxehsfr3q-1777055587172.csv,228,html-keyboard-response,reading,166.0, ,f32,filler,False,1,would fit the client perfectly.,6.0,other,,,,,303041
1sxehsfr3q,1sxehsfr3q-1777055587172.csv,229,html-keyboard-response,reading,171.0, ,f9,filler,False,1,David practiced the piano,0.0,other,,,,,303213
1sxehsfr3q,1sxehsfr3q-1777055587172.csv,230,html-keyboard-response,reading,167.0, ,f9,filler,False,1,for three hours every day.,1.0,other,,,,,303381
1sxehsfr3q,1sxehsfr3q-1777055587172.csv,231,html-keyboard-response,sentence_break,,,f9,,,1,,,,,,,,304384
1sxehsfr3q,1sxehsfr3q-1777055587172.csv,232,html-keyboard-response,reading,161.0, ,f9,filler,False,1,His dedication paid off,3.0,other,,,,,304546
1sxehsfr3q,1sxehsfr3q-1777055587172.csv,233,html-keyboard-response,reading,171.0, ,f9,filler,False,1,when he won first place,4.0,other,,,,,304719
1sxehsfr3q,1sxehsfr3q-1777055587172.csv,234,html-keyboard-response,reading,179.0, ,f9,filler,False,1,in the regional competition.,5.0,other,,,,,304899
1sxehsfr3q,1sxehsfr3q-1777055587172.csv,235,html-keyboard-response,reading,157.0, ,7,upper_bound_only_some,True,1,The supervisor was wondering,0.0,other,,,,,305057
1sxehsfr3q,1sxehsfr3q-1777055587172.csv,236,html-keyboard-response,reading,148.0, ,7,upper_bound_only_some,True,1,whether the courier had delivered,1.0,other,,,,,305206
1sxehsfr3q,1sxehsfr3q-1777055587172.csv,237,html-keyboard-response,reading,167.0, ,7,upper_bound_only_some,True,1,all the packages,2.0,other,,,,,305374
1sxehsfr3q,1sxehsfr3q-1777055587172.csv,238,html-keyboard-response,reading,175.0, ,7,upper_bound_only_some,True,1,before closing time.,3.0,other,,,,,305551
1sxehsfr3q,1sxehsfr3q-1777055587172.csv,239,html-keyboard-response,sentence_break,,,7,,,1,,,,,,,,306554
1sxehsfr3q,1sxehsfr3q-1777055587172.csv,240,html-keyboard-response,reading,146.0, ,7,upper_bound_only_some,True,1,The courier explained,5.0,other,,,,,306701
1sxehsfr3q,1sxehsfr3q-1777055587172.csv,241,html-keyboard-response,reading,153.0, ,7,upper_bound_only_some,True,1,that he had delivered,6.0,other,,,,,306855
1sxehsfr3q,1sxehsfr3q-1777055587172.csv,242,html-keyboard-response,reading,164.0, ,7,upper_bound_only_some,True,1,only some of the packages.,7.0,trigger,,,,,307020
1sxehsfr3q,1sxehsfr3q-1777055587172.csv,243,html-keyboard-response,sentence_break,,,7,,,1,,,,,,,,308027
1sxehsfr3q,1sxehsfr3q-1777055587172.csv,244,html-keyboard-response,reading,121.0, ,7,upper_bound_only_some,True,1,The rest,9.0,target,,,,,308149
1sxehsfr3q,1sxehsfr3q-1777055587172.csv,245,html-keyboard-response,reading,217.0, ,7,upper_bound_only_some,True,1,would be delivered,10.0,post_target,,,,,308367
1sxehsfr3q,1sxehsfr3q-1777055587172.csv,246,html-keyboard-response,reading,166.0, ,7,upper_bound_only_some,True,1,the following morning.,11.0,other,,,,,308534
1sxehsfr3q,1sxehsfr3q-1777055587172.csv,247,html-keyboard-response,comprehension,1058.0,j,7,,,1,,,,no,Was the courier delivering letters?,no,True,309593
1sxehsfr3q,1sxehsfr3q-1777055587172.csv,248,html-keyboard-response,reading,11003.0, ,f24,filler,False,1,The mechanic inspected,0.0,other,,,,,320597
1sxehsfr3q,1sxehsfr3q-1777055587172.csv,249,html-keyboard-response,reading,146.0, ,f24,filler,False,1,the engine carefully,1.0,other,,,,,320744
1sxehsfr3q,1sxehsfr3q-1777055587172.csv,250,html-keyboard-response,reading,132.0, ,f24,filler,False,1,before giving his assessment.,2.0,other,,,,,320877
1sxehsfr3q,1sxehsfr3q-1777055587172.csv,251,html-keyboard-response,sentence_break,,,f24,,,1,,,,,,,,321880
1sxehsfr3q,1sxehsfr3q-1777055587172.csv,252,html-keyboard-response,reading,127.0, ,f24,filler,False,1,He told the owner,4.0,other,,,,,322009
1sxehsfr3q,1sxehsfr3q-1777055587172.csv,253,html-keyboard-response,reading,658.0, ,f24,filler,False,1,that the car needed,5.0,other,,,,,322668
1sxehsfr3q,1sxehsfr3q-1777055587172.csv,254,html-keyboard-response,reading,186.0, ,f24,filler,False,1,a new set of brake pads.,6.0,other,,,,,322855
1sxehsfr3q,1sxehsfr3q-1777055587172.csv,255,html-keyboard-response,reading,184.0, ,3,upper_bound_some,True,1,"Yesterday, George asked Mary",0.0,other,,,,,323040
1sxehsfr3q,1sxehsfr3q-1777055587172.csv,256,html-keyboard-response,reading,243.0, ,3,upper_bound_some,True,1,whether John had gone to the cinema,1.0,other,,,,,323285
1sxehsfr3q,1sxehsfr3q-1777055587172.csv,257,html-keyboard-response,reading,168.0, ,3,upper_bound_some,True,1,with all his friends.,2.0,other,,,,,323454
1sxehsfr3q,1sxehsfr3q-1777055587172.csv,258,html-keyboard-response,sentence_break,,,3,,,1,,,,,,,,324458
1sxehsfr3q,1sxehsfr3q-1777055587172.csv,259,html-keyboard-response,reading,1690.0, ,3,upper_bound_some,True,1,Mary said that,4.0,other,,,,,326149
1sxehsfr3q,1sxehsfr3q-1777055587172.csv,260,html-keyboard-response,reading,138.0, ,3,upper_bound_some,True,1,he went to the cinema,5.0,other,,,,,326288
1sxehsfr3q,1sxehsfr3q-1777055587172.csv,261,html-keyboard-response,reading,341.0, ,3,upper_bound_some,True,1,with some of his friends.,6.0,trigger,,,,,326631
1sxehsfr3q,1sxehsfr3q-1777055587172.csv,262,html-keyboard-response,sentence_break,,,3,,,1,,,,,,,,327633
1sxehsfr3q,1sxehsfr3q-1777055587172.csv,263,html-keyboard-response,reading,54.0, ,3,upper_bound_some,True,1,The others,8.0,target,,,,,327687
1sxehsfr3q,1sxehsfr3q-1777055587172.csv,264,html-keyboard-response,reading,188.0, ,3,upper_bound_some,True,1,went for bowling,9.0,post_target,,,,,327875
1sxehsfr3q,1sxehsfr3q-1777055587172.csv,265,html-keyboard-response,reading,163.0, ,3,upper_bound_some,True,1,and roller-skating.,10.0,other,,,,,328039
1sxehsfr3q,1sxehsfr3q-1777055587172.csv,266,html-keyboard-response,reading,163.0, ,f31,filler,False,1,The pilot announced,0.0,other,,,,,328203
1sxehsfr3q,1sxehsfr3q-1777055587172.csv,267,html-keyboard-response,reading,189.0, ,f31,filler,False,1,that the plane would be landing,1.0,other,,,,,328392
1sxehsfr3q,1sxehsfr3q-1777055587172.csv,268,html-keyboard-response,reading,194.0, ,f31,filler,False,1,in approximately thirty minutes.,2.0,other,,,,,328588
1sxehsfr3q,1sxehsfr3q-1777055587172.csv,269,html-keyboard-response,sentence_break,,,f31,,,1,,,,,,,,329592
1sxehsfr3q,1sxehsfr3q-1777055587172.csv,270,html-keyboard-response,reading,239.0, ,f31,filler,False,1,The flight attendants,4.0,other,,,,,329833
1sxehsfr3q,1sxehsfr3q-1777055587172.csv,271,html-keyboard-response,reading,193.0, ,f31,filler,False,1,began preparing the cabin,5.0,other,,,,,330027
1sxehsfr3q,1sxehsfr3q-1777055587172.csv,272,html-keyboard-response,reading,228.0, ,f31,filler,False,1,for the descent.,6.0,other,,,,,330255
1sxehsfr3q,1sxehsfr3q-1777055587172.csv,273,html-keyboard-response,rest_break,222.0, ,,,,1,,,,,,,,330480
1sxehsfr3q,1sxehsfr3q-1777055587172.csv,274,html-keyboard-response,reading,459.0, ,f8,filler,False,1,The construction workers,0.0,other,,,,,330940
1sxehsfr3q,1sxehsfr3q-1777055587172.csv,275,html-keyboard-response,reading,178.0, ,f8,filler,False,1,finished the bridge,1.0,other,,,,,331119
1sxehsfr3q,1sxehsfr3q-1777055587172.csv,276,html-keyboard-response,reading,186.0, ,f8,filler,False,1,ahead of schedule.,2.0,other,,,,,331306
1sxehsfr3q,1sxehsfr3q-1777055587172.csv,277,html-keyboard-response,sentence_break,,,f8,,,1,,,,,,,,332308
1sxehsfr3q,1sxehsfr3q-1777055587172.csv,278,html-keyboard-response,reading,1062.0, ,f8,filler,False,1,The mayor praised their effort,4.0,other,,,,,333371
1sxehsfr3q,1sxehsfr3q-1777055587172.csv,279,html-keyboard-response,reading,1349.0, ,f8,filler,False,1,and announced,5.0,other,,,,,334722
1sxehsfr3q,1sxehsfr3q-1777055587172.csv,280,html-keyboard-response,reading,172.0, ,f8,filler,False,1,a celebration for the town.,6.0,other,,,,,334895
1sxehsfr3q,1sxehsfr3q-1777055587172.csv,281,html-keyboard-response,comprehension,2458.0,j,f8,,,1,,,,yes,Was the bridge completed on time?,no,False,337354
1sxehsfr3q,1sxehsfr3q-1777055587172.csv,282,html-keyboard-response,reading,1424.0, ,f18,filler,False,1,Michael trained hard,0.0,other,,,,,338780
1sxehsfr3q,1sxehsfr3q-1777055587172.csv,283,html-keyboard-response,reading,227.0, ,f18,filler,False,1,for the marathon,1.0,other,,,,,339007
1sxehsfr3q,1sxehsfr3q-1777055587172.csv,284,html-keyboard-response,reading,187.0, ,f18,filler,False,1,over the summer months.,2.0,other,,,,,339196
1sxehsfr3q,1sxehsfr3q-1777055587172.csv,285,html-keyboard-response,sentence_break,,,f18,,,1,,,,,,,,340198
1sxehsfr3q,1sxehsfr3q-1777055587172.csv,286,html-keyboard-response,reading,1093.0, ,f18,filler,False,1,On race day,4.0,other,,,,,341293
1sxehsfr3q,1sxehsfr3q-1777055587172.csv,287,html-keyboard-response,reading,125.0, ,f18,filler,False,1,he completed the course,5.0,other,,,,,341419
1sxehsfr3q,1sxehsfr3q-1777055587172.csv,288,html-keyboard-response,reading,170.0, ,f18,filler,False,1,in under four hours.,6.0,other,,,,,341591
1sxehsfr3q,1sxehsfr3q-1777055587172.csv,289,html-keyboard-response,reading,171.0, ,f5,filler,False,1,The librarian noticed,0.0,other,,,,,341763
1sxehsfr3q,1sxehsfr3q-1777055587172.csv,290,html-keyboard-response,reading,206.0, ,f5,filler,False,1,that several books,1.0,other,,,,,341969
1sxehsfr3q,1sxehsfr3q-1777055587172.csv,291,html-keyboard-response,reading,196.0, ,f5,filler,False,1,were missing from the shelves.,2.0,other,,,,,342166
1sxehsfr3q,1sxehsfr3q-1777055587172.csv,292,html-keyboard-response,sentence_break,,,f5,,,1,,,,,,,,343167
1sxehsfr3q,1sxehsfr3q-1777055587172.csv,293,html-keyboard-response,reading,1513.0, ,f5,filler,False,1,She checked the records,4.0,other,,,,,344681
1sxehsfr3q,1sxehsfr3q-1777055587172.csv,294,html-keyboard-response,reading,153.0, ,f5,filler,False,1,and found that they had been,5.0,other,,,,,344836
1sxehsfr3q,1sxehsfr3q-1777055587172.csv,295,html-keyboard-response,reading,146.0, ,f5,filler,False,1,borrowed last week.,6.0,other,,,,,344983
1sxehsfr3q,1sxehsfr3q-1777055587172.csv,296,html-keyboard-response,reading,224.0, ,f6,filler,False,1,The weather forecast predicted,0.0,other,,,,,345208
1sxehsfr3q,1sxehsfr3q-1777055587172.csv,297,html-keyboard-response,reading,179.0, ,f6,filler,False,1,heavy rain for the entire week.,1.0,other,,,,,345388
1sxehsfr3q,1sxehsfr3q-1777055587172.csv,298,html-keyboard-response,sentence_break,,,f6,,,1,,,,,,,,346391
1sxehsfr3q,1sxehsfr3q-1777055587172.csv,299,html-keyboard-response,reading,55.0, ,f6,filler,False,1,"Despite the warning,",3.0,other,,,,,346448
1sxehsfr3q,1sxehsfr3q-1777055587172.csv,300,html-keyboard-response,reading,184.0, ,f6,filler,False,1,many people,4.0,other,,,,,346633
1sxehsfr3q,1sxehsfr3q-1777055587172.csv,301,html-keyboard-response,reading,186.0, ,f6,filler,False,1,went out without umbrellas.,5.0,other,,,,,346821
1sxehsfr3q,1sxehsfr3q-1777055587172.csv,302,html-keyboard-response,comprehension,983.0,j,f6,,,1,,,,no,Did the forecast predict sunshine?,no,True,347805
1sxehsfr3q,1sxehsfr3q-1777055587172.csv,303,html-keyboard-response,reading,277.0, ,f34,filler,False,1,The baker experimented,0.0,other,,,,,348083
1sxehsfr3q,1sxehsfr3q-1777055587172.csv,304,html-keyboard-response,reading,174.0, ,f34,filler,False,1,with a new recipe,1.0,other,,,,,348257
1sxehsfr3q,1sxehsfr3q-1777055587172.csv,305,html-keyboard-response,reading,232.0, ,f34,filler,False,1,for sourdough bread.,2.0,other,,,,,348490
1sxehsfr3q,1sxehsfr3q-1777055587172.csv,306,html-keyboard-response,sentence_break,,,f34,,,1,,,,,,,,349492
1sxehsfr3q,1sxehsfr3q-1777055587172.csv,307,html-keyboard-response,reading,242.0, ,f34,filler,False,1,The first batch turned out,4.0,other,,,,,349735
1sxehsfr3q,1sxehsfr3q-1777055587172.csv,308,html-keyboard-response,reading,181.0, ,f34,filler,False,1,surprisingly well,5.0,other,,,,,349916
1sxehsfr3q,1sxehsfr3q-1777055587172.csv,309,html-keyboard-response,reading,172.0, ,f34,filler,False,1,and sold out within the hour.,6.0,other,,,,,350089
1sxehsfr3q,1sxehsfr3q-1777055587172.csv,310,html-keyboard-response,comprehension,930.0,f,f34,,,1,,,,yes,Did the sourdough bread sell quickly?,yes,True,351020
1sxehsfr3q,1sxehsfr3q-1777055587172.csv,311,html-keyboard-response,reading,4598.0, ,f15,filler,False,1,Laura finished her novel,0.0,other,,,,,355619
1sxehsfr3q,1sxehsfr3q-1777055587172.csv,312,html-keyboard-response,reading,153.0, ,f15,filler,False,1,after working on it,1.0,other,,,,,355774
1sxehsfr3q,1sxehsfr3q-1777055587172.csv,313,html-keyboard-response,reading,402.0, ,f15,filler,False,1,for over two years.,2.0,other,,,,,356177
1sxehsfr3q,1sxehsfr3q-1777055587172.csv,314,html-keyboard-response,sentence_break,,,f15,,,1,,,,,,,,357180
1sxehsfr3q,1sxehsfr3q-1777055587172.csv,315,html-keyboard-response,reading,142.0, ,f15,filler,False,1,She submitted the manuscript,4.0,other,,,,,357324
1sxehsfr3q,1sxehsfr3q-1777055587172.csv,316,html-keyboard-response,reading,198.0, ,f15,filler,False,1,to a publishing house,5.0,other,,,,,357523
1sxehsfr3q,1sxehsfr3q-1777055587172.csv,317,html-keyboard-response,reading,214.0, ,f15,filler,False,1,and waited for a response.,6.0,other,,,,,357738
1sxehsfr3q,1sxehsfr3q-1777055587172.csv,318,html-keyboard-response,reading,213.0, ,f30,filler,False,1,The students organised,0.0,other,,,,,357952
1sxehsfr3q,1sxehsfr3q-1777055587172.csv,319,html-keyboard-response,reading,369.0, ,f30,filler,False,1,a charity bake sale,1.0,other,,,,,358322
1sxehsfr3q,1sxehsfr3q-1777055587172.csv,320,html-keyboard-response,reading,198.0, ,f30,filler,False,1,in the school hall.,2.0,other,,,,,358521
1sxehsfr3q,1sxehsfr3q-1777055587172.csv,321,html-keyboard-response,sentence_break,,,f30,,,1,,,,,,,,359524
1sxehsfr3q,1sxehsfr3q-1777055587172.csv,322,html-keyboard-response,reading,51.0, ,f30,filler,False,1,They raised over two hundred pounds,4.0,other,,,,,359576
1sxehsfr3q,1sxehsfr3q-1777055587172.csv,323,html-keyboard-response,reading,623.0, ,f30,filler,False,1,which they donated,5.0,other,,,,,360200
1sxehsfr3q,1sxehsfr3q-1777055587172.csv,324,html-keyboard-response,reading,130.0, ,f30,filler,False,1,to the local food bank.,6.0,other,,,,,360331
1sxehsfr3q,1sxehsfr3q-1777055587172.csv,325,html-keyboard-response,reading,171.0, ,9,upper_bound_some,True,1,The landlord stopped by to check,0.0,other,,,,,360503
1sxehsfr3q,1sxehsfr3q-1777055587172.csv,326,html-keyboard-response,reading,143.0, ,9,upper_bound_some,True,1,whether the repairman had fixed,1.0,other,,,,,360646
1sxehsfr3q,1sxehsfr3q-1777055587172.csv,327,html-keyboard-response,reading,176.0, ,9,upper_bound_some,True,1,all the windows,2.0,other,,,,,360824
1sxehsfr3q,1sxehsfr3q-1777055587172.csv,328,html-keyboard-response,reading,197.0, ,9,upper_bound_some,True,1,in the old building.,3.0,other,,,,,361022
1sxehsfr3q,1sxehsfr3q-1777055587172.csv,329,html-keyboard-response,sentence_break,,,9,,,1,,,,,,,,362025
1sxehsfr3q,1sxehsfr3q-1777055587172.csv,330,html-keyboard-response,reading,516.0, ,9,upper_bound_some,True,1,The repairman said,5.0,other,,,,,362541
1sxehsfr3q,1sxehsfr3q-1777055587172.csv,331,html-keyboard-response,reading,181.0, ,9,upper_bound_some,True,1,that he had fixed,6.0,other,,,,,362724
1sxehsfr3q,1sxehsfr3q-1777055587172.csv,332,html-keyboard-response,reading,171.0, ,9,upper_bound_some,True,1,some of the windows.,7.0,trigger,,,,,362896
1sxehsfr3q,1sxehsfr3q-1777055587172.csv,333,html-keyboard-response,sentence_break,,,9,,,1,,,,,,,,363898
1sxehsfr3q,1sxehsfr3q-1777055587172.csv,334,html-keyboard-response,reading,2977.0, ,9,upper_bound_some,True,1,The rest,9.0,target,,,,,366877
1sxehsfr3q,1sxehsfr3q-1777055587172.csv,335,html-keyboard-response,reading,144.0, ,9,upper_bound_some,True,1,needed special parts,10.0,post_target,,,,,367022
1sxehsfr3q,1sxehsfr3q-1777055587172.csv,336,html-keyboard-response,reading,168.0, ,9,upper_bound_some,True,1,that had not arrived yet.,11.0,other,,,,,367191
1sxehsfr3q,1sxehsfr3q-1777055587172.csv,337,html-keyboard-response,reading,172.0, ,f12,filler,False,1,Rachel volunteered,0.0,other,,,,,367363
1sxehsfr3q,1sxehsfr3q-1777055587172.csv,338,html-keyboard-response,reading,183.0, ,f12,filler,False,1,at the animal shelter,1.0,other,,,,,367547
1sxehsfr3q,1sxehsfr3q-1777055587172.csv,339,html-keyboard-response,reading,152.0, ,f12,filler,False,1,every Saturday afternoon.,2.0,other,,,,,367700
1sxehsfr3q,1sxehsfr3q-1777055587172.csv,340,html-keyboard-response,sentence_break,,,f12,,,1,,,,,,,,368705
1sxehsfr3q,1sxehsfr3q-1777055587172.csv,341,html-keyboard-response,reading,65.0, ,f12,filler,False,1,She enjoyed spending time,4.0,other,,,,,368771
1sxehsfr3q,1sxehsfr3q-1777055587172.csv,342,html-keyboard-response,reading,185.0, ,f12,filler,False,1,with the dogs,5.0,other,,,,,368957
1sxehsfr3q,1sxehsfr3q-1777055587172.csv,343,html-keyboard-response,reading,186.0, ,f12,filler,False,1,and taking them for walks.,6.0,other,,,,,369144
1sxehsfr3q,1sxehsfr3q-1777055587172.csv,344,html-keyboard-response,reading,178.0, ,f36,filler,False,1,The scientist published,0.0,other,,,,,369322
1sxehsfr3q,1sxehsfr3q-1777055587172.csv,345,html-keyboard-response,reading,151.0, ,f36,filler,False,1,her findings in a leading journal,1.0,other,,,,,369475
1sxehsfr3q,1sxehsfr3q-1777055587172.csv,346,html-keyboard-response,reading,138.0, ,f36,filler,False,1,after years of research.,2.0,other,,,,,369614
1sxehsfr3q,1sxehsfr3q-1777055587172.csv,347,html-keyboard-response,sentence_break,,,f36,,,1,,,,,,,,370615
1sxehsfr3q,1sxehsfr3q-1777055587172.csv,348,html-keyboard-response,reading,11.0, ,f36,filler,False,1,The paper attracted attention,4.0,other,,,,,370627
1sxehsfr3q,1sxehsfr3q-1777055587172.csv,349,html-keyboard-response,reading,190.0, ,f36,filler,False,1,from colleagues worldwide,5.0,other,,,,,370817
1sxehsfr3q,1sxehsfr3q-1777055587172.csv,350,html-keyboard-response,reading,169.0, ,f36,filler,False,1,and was widely cited.,6.0,other,,,,,370987
1sxehsfr3q,1sxehsfr3q-1777055587172.csv,351,html-keyboard-response,reading,188.0, ,2,lower_bound_some,True,1,Mary pays attention,0.0,other,,,,,371176
1sxehsfr3q,1sxehsfr3q-1777055587172.csv,352,html-keyboard-response,reading,192.0, ,2,lower_bound_some,True,1,to the most minute detail,1.0,other,,,,,371369
1sxehsfr3q,1sxehsfr3q-1777055587172.csv,353,html-keyboard-response,reading,435.0, ,2,lower_bound_some,True,1,in order to create a romantic atmosphere,2.0,other,,,,,371804
1sxehsfr3q,1sxehsfr3q-1777055587172.csv,354,html-keyboard-response,reading,175.0, ,2,lower_bound_some,True,1,in her dinner parties.,3.0,other,,,,,371981
1sxehsfr3q,1sxehsfr3q-1777055587172.csv,355,html-keyboard-response,sentence_break,,,2,,,1,,,,,,,,372984
1sxehsfr3q,1sxehsfr3q-1777055587172.csv,356,html-keyboard-response,reading,393.0, ,2,lower_bound_some,True,1,Last night she had a dinner party and,5.0,other,,,,,373378
1sxehsfr3q,1sxehsfr3q-1777055587172.csv,357,html-keyboard-response,reading,172.0, ,2,lower_bound_some,True,1,she lit,6.0,other,,,,,373551
1sxehsfr3q,1sxehsfr3q-1777055587172.csv,358,html-keyboard-response,reading,189.0, ,2,lower_bound_some,True,1,some of her candles.,7.0,trigger,,,,,373741
1sxehsfr3q,1sxehsfr3q-1777055587172.csv,359,html-keyboard-response,sentence_break,,,2,,,1,,,,,,,,374744
1sxehsfr3q,1sxehsfr3q-1777055587172.csv,360,html-keyboard-response,reading,113.0, ,2,lower_bound_some,True,1,The others,9.0,target,,,,,374858
1sxehsfr3q,1sxehsfr3q-1777055587172.csv,361,html-keyboard-response,reading,144.0, ,2,lower_bound_some,True,1,were left unlit,10.0,post_target,,,,,375004
1sxehsfr3q,1sxehsfr3q-1777055587172.csv,362,html-keyboard-response,reading,225.0, ,2,lower_bound_some,True,1,to create a nice atmosphere.,11.0,other,,,,,375231
1sxehsfr3q,1sxehsfr3q-1777055587172.csv,363,html-keyboard-response,reading,283.0, ,f21,filler,False,1,The gardener planted,0.0,other,,,,,375514
1sxehsfr3q,1sxehsfr3q-1777055587172.csv,364,html-keyboard-response,reading,258.0, ,f21,filler,False,1,a row of rose bushes,1.0,other,,,,,375774
1sxehsfr3q,1sxehsfr3q-1777055587172.csv,365,html-keyboard-response,reading,223.0, ,f21,filler,False,1,along the garden fence.,2.0,other,,,,,375998
1sxehsfr3q,1sxehsfr3q-1777055587172.csv,366,html-keyboard-response,sentence_break,,,f21,,,1,,,,,,,,376999
1sxehsfr3q,1sxehsfr3q-1777055587172.csv,367,html-keyboard-response,reading,189.0, ,f21,filler,False,1,By the following spring,4.0,other,,,,,377190
1sxehsfr3q,1sxehsfr3q-1777055587172.csv,368,html-keyboard-response,reading,189.0, ,f21,filler,False,1,the bushes had grown,5.0,other,,,,,377379
1sxehsfr3q,1sxehsfr3q-1777055587172.csv,369,html-keyboard-response,reading,195.0, ,f21,filler,False,1,and were covered in flowers.,6.0,other,,,,,377575
1sxehsfr3q,1sxehsfr3q-1777055587172.csv,370,html-keyboard-response,comprehension,1100.0,j,f21,,,1,,,,yes,Were the rose bushes planted along the fence?,no,False,378676
1sxehsfr3q,1sxehsfr3q-1777055587172.csv,371,html-keyboard-response,reading,3614.0, ,f29,filler,False,1,The nurse checked,0.0,other,,,,,382291
1sxehsfr3q,1sxehsfr3q-1777055587172.csv,372,html-keyboard-response,reading,168.0, ,f29,filler,False,1,the patient's temperature,1.0,other,,,,,382461
1sxehsfr3q,1sxehsfr3q-1777055587172.csv,373,html-keyboard-response,reading,155.0, ,f29,filler,False,1,every two hours.,2.0,other,,,,,382617
1sxehsfr3q,1sxehsfr3q-1777055587172.csv,374,html-keyboard-response,sentence_break,,,f29,,,1,,,,,,,,383625
1sxehsfr3q,1sxehsfr3q-1777055587172.csv,375,html-keyboard-response,reading,93.0, ,f29,filler,False,1,By the evening,4.0,other,,,,,383719
1sxehsfr3q,1sxehsfr3q-1777055587172.csv,376,html-keyboard-response,reading,171.0, ,f29,filler,False,1,the fever had gone down,5.0,other,,,,,383892
1sxehsfr3q,1sxehsfr3q-1777055587172.csv,377,html-keyboard-response,reading,153.0, ,f29,filler,False,1,and the patient was feeling much better.,6.0,other,,,,,384046
1sxehsfr3q,1sxehsfr3q-1777055587172.csv,378,html-keyboard-response,comprehension,1023.0,f,f29,,,1,,,,no,Did the fever stay the same?,yes,False,385070
1sxehsfr3q,1sxehsfr3q-1777055587172.csv,379,html-keyboard-response,reading,789.0, ,14,lower_bound_some,True,1,The professor was in his office,0.0,other,,,,,385860
1sxehsfr3q,1sxehsfr3q-1777055587172.csv,380,html-keyboard-response,reading,150.0, ,14,lower_bound_some,True,1,looking quite tired,1.0,other,,,,,386012
1sxehsfr3q,1sxehsfr3q-1777055587172.csv,381,html-keyboard-response,reading,339.0, ,14,lower_bound_some,True,1,after a very long day.,2.0,other,,,,,386352
1sxehsfr3q,1sxehsfr3q-1777055587172.csv,382,html-keyboard-response,sentence_break,,,14,,,1,,,,,,,,387354
1sxehsfr3q,1sxehsfr3q-1777055587172.csv,383,html-keyboard-response,reading,324.0, ,14,lower_bound_some,True,1,He mentioned,4.0,other,,,,,387680
1sxehsfr3q,1sxehsfr3q-1777055587172.csv,384,html-keyboard-response,reading,166.0, ,14,lower_bound_some,True,1,that he had graded,5.0,other,,,,,387847
1sxehsfr3q,1sxehsfr3q-1777055587172.csv,385,html-keyboard-response,reading,202.0, ,14,lower_bound_some,True,1,some of the essays.,6.0,trigger,,,,,388050
1sxehsfr3q,1sxehsfr3q-1777055587172.csv,386,html-keyboard-response,sentence_break,,,14,,,1,,,,,,,,389054
1sxehsfr3q,1sxehsfr3q-1777055587172.csv,387,html-keyboard-response,reading,6539.0, ,14,lower_bound_some,True,1,The others,8.0,target,,,,,395595
1sxehsfr3q,1sxehsfr3q-1777055587172.csv,388,html-keyboard-response,reading,176.0, ,14,lower_bound_some,True,1,required more careful attention,9.0,post_target,,,,,395772
1sxehsfr3q,1sxehsfr3q-1777055587172.csv,389,html-keyboard-response,reading,149.0, ,14,lower_bound_some,True,1,and would take extra time.,10.0,other,,,,,395922
1sxehsfr3q,1sxehsfr3q-1777055587172.csv,390,html-keyboard-response,reading,209.0, ,f2,filler,False,1,Sarah went to the supermarket,0.0,other,,,,,396133
1sxehsfr3q,1sxehsfr3q-1777055587172.csv,391,html-keyboard-response,reading,179.0, ,f2,filler,False,1,to buy ingredients,1.0,other,,,,,396313
1sxehsfr3q,1sxehsfr3q-1777055587172.csv,392,html-keyboard-response,reading,156.0, ,f2,filler,False,1,for the dinner party.,2.0,other,,,,,396470
1sxehsfr3q,1sxehsfr3q-1777055587172.csv,393,html-keyboard-response,sentence_break,,,f2,,,1,,,,,,,,397473
1sxehsfr3q,1sxehsfr3q-1777055587172.csv,394,html-keyboard-response,reading,161.0, ,f2,filler,False,1,She picked up,4.0,other,,,,,397635
1sxehsfr3q,1sxehsfr3q-1777055587172.csv,395,html-keyboard-response,reading,150.0, ,f2,filler,False,1,fresh vegetables,5.0,other,,,,,397786
1sxehsfr3q,1sxehsfr3q-1777055587172.csv,396,html-keyboard-response,reading,2622.0, ,f2,filler,False,1,and a bottle of wine.,6.0,other,,,,,400409
1sxehsfr3q,1sxehsfr3q-1777055587172.csv,397,html-keyboard-response,reading,150.0, ,f7,filler,False,1,Emily started her new job,0.0,other,,,,,400560
1sxehsfr3q,1sxehsfr3q-1777055587172.csv,398,html-keyboard-response,reading,181.0, ,f7,filler,False,1,at the marketing firm,1.0,other,,,,,400742
1sxehsfr3q,1sxehsfr3q-1777055587172.csv,399,html-keyboard-response,reading,188.0, ,f7,filler,False,1,on a Monday morning.,2.0,other,,,,,400931
1sxehsfr3q,1sxehsfr3q-1777055587172.csv,400,html-keyboard-response,sentence_break,,,f7,,,1,,,,,,,,401933
1sxehsfr3q,1sxehsfr3q-1777055587172.csv,401,html-keyboard-response,reading,295.0, ,f7,filler,False,1,Her colleagues,4.0,other,,,,,402229
1sxehsfr3q,1sxehsfr3q-1777055587172.csv,402,html-keyboard-response,reading,179.0, ,f7,filler,False,1,welcomed her warmly,5.0,other,,,,,402409
1sxehsfr3q,1sxehsfr3q-1777055587172.csv,403,html-keyboard-response,reading,609.0, ,f7,filler,False,1,and showed her around the office.,6.0,other,,,,,403019
1sxehsfr3q,1sxehsfr3q-1777055587172.csv,404,html-keyboard-response,reading,562.0, ,f25,filler,False,1,The swimmer dove,0.0,other,,,,,403582
1sxehsfr3q,1sxehsfr3q-1777055587172.csv,405,html-keyboard-response,reading,216.0, ,f25,filler,False,1,into the pool,1.0,other,,,,,403799
1sxehsfr3q,1sxehsfr3q-1777055587172.csv,406,html-keyboard-response,reading,217.0, ,f25,filler,False,1,at the sound of the whistle.,2.0,other,,,,,404017
1sxehsfr3q,1sxehsfr3q-1777055587172.csv,407,html-keyboard-response,sentence_break,,,f25,,,1,,,,,,,,405020
1sxehsfr3q,1sxehsfr3q-1777055587172.csv,408,html-keyboard-response,reading,398.0, ,f25,filler,False,1,She completed the lap,4.0,other,,,,,405419
1sxehsfr3q,1sxehsfr3q-1777055587172.csv,409,html-keyboard-response,reading,189.0, ,f25,filler,False,1,in record time,5.0,other,,,,,405610
1sxehsfr3q,1sxehsfr3q-1777055587172.csv,410,html-keyboard-response,reading,394.0, ,f25,filler,False,1,and qualified for the finals.,6.0,other,,,,,406006
1sxehsfr3q,1sxehsfr3q-1777055587172.csv,411,html-keyboard-response,reading,175.0, ,f10,filler,False,1,The flight was delayed,0.0,other,,,,,406181
1sxehsfr3q,1sxehsfr3q-1777055587172.csv,412,html-keyboard-response,reading,224.0, ,f10,filler,False,1,by two hours,1.0,other,,,,,406406
1sxehsfr3q,1sxehsfr3q-1777055587172.csv,413,html-keyboard-response,reading,254.0, ,f10,filler,False,1,due to bad weather.,2.0,other,,,,,406662
1sxehsfr3q,1sxehsfr3q-1777055587172.csv,414,html-keyboard-response,sentence_break,,,f10,,,1,,,,,,,,407666
1sxehsfr3q,1sxehsfr3q-1777055587172.csv,415,html-keyboard-response,reading,3223.0, ,f10,filler,False,1,The passengers waited patiently,4.0,other,,,,,410890
1sxehsfr3q,1sxehsfr3q-1777055587172.csv,416,html-keyboard-response,reading,125.0, ,f10,filler,False,1,in the departure lounge,5.0,other,,,,,411016
1sxehsfr3q,1sxehsfr3q-1777055587172.csv,417,html-keyboard-response,reading,149.0, ,f10,filler,False,1,reading books and magazines.,6.0,other,,,,,411165
1sxehsfr3q,1sxehsfr3q-1777055587172.csv,418,html-keyboard-response,reading,160.0, ,f35,filler,False,1,The postman delivered,0.0,other,,,,,411327
1sxehsfr3q,1sxehsfr3q-1777055587172.csv,419,html-keyboard-response,reading,176.0, ,f35,filler,False,1,a large parcel,1.0,other,,,,,411504
1sxehsfr3q,1sxehsfr3q-1777055587172.csv,420,html-keyboard-response,reading,136.0, ,f35,filler,False,1,to the wrong address.,2.0,other,,,,,411640
1sxehsfr3q,1sxehsfr3q-1777055587172.csv,421,html-keyboard-response,sentence_break,,,f35,,,1,,,,,,,,412644
1sxehsfr3q,1sxehsfr3q-1777055587172.csv,422,html-keyboard-response,reading,1106.0, ,f35,filler,False,1,He realised his mistake,4.0,other,,,,,413751
1sxehsfr3q,1sxehsfr3q-1777055587172.csv,423,html-keyboard-response,reading,176.0, ,f35,filler,False,1,and returned later,5.0,other,,,,,413928
1sxehsfr3q,1sxehsfr3q-1777055587172.csv,424,html-keyboard-response,reading,144.0, ,f35,filler,False,1,to collect it and redeliver it.,6.0,other,,,,,414073
1sxehsfr3q,1sxehsfr3q-1777055587172.csv,425,html-keyboard-response,reading,176.0, ,f19,filler,False,1,The chef prepared,0.0,other,,,,,414250
1sxehsfr3q,1sxehsfr3q-1777055587172.csv,426,html-keyboard-response,reading,168.0, ,f19,filler,False,1,an elaborate five-course meal,1.0,other,,,,,414420
1sxehsfr3q,1sxehsfr3q-1777055587172.csv,427,html-keyboard-response,reading,206.0, ,f19,filler,False,1,for the anniversary dinner.,2.0,other,,,,,414626
1sxehsfr3q,1sxehsfr3q-1777055587172.csv,428,html-keyboard-response,sentence_break,,,f19,,,1,,,,,,,,415629
1sxehsfr3q,1sxehsfr3q-1777055587172.csv,429,html-keyboard-response,reading,2985.0, ,f19,filler,False,1,The guests were impressed,4.0,other,,,,,418615
1sxehsfr3q,1sxehsfr3q-1777055587172.csv,430,html-keyboard-response,reading,158.0, ,f19,filler,False,1,by the quality of the food,5.0,other,,,,,418775
1sxehsfr3q,1sxehsfr3q-1777055587172.csv,431,html-keyboard-response,reading,167.0, ,f19,filler,False,1,and the beautiful presentation.,6.0,other,,,,,418943
1sxehsfr3q,1sxehsfr3q-1777055587172.csv,432,html-keyboard-response,comprehension,1097.0,j,f19,,,1,,,,no,Was the meal prepared for a birthday?,no,True,420041
1sxehsfr3q,1sxehsfr3q-1777055587172.csv,433,html-keyboard-response,reading,366.0, ,4,upper_bound_only_some,True,1,The warden of the zoo,0.0,other,,,,,420407
1sxehsfr3q,1sxehsfr3q-1777055587172.csv,434,html-keyboard-response,reading,154.0, ,4,upper_bound_only_some,True,1,asked whether all the lions had been fed.,1.0,other,,,,,420562
1sxehsfr3q,1sxehsfr3q-1777055587172.csv,435,html-keyboard-response,sentence_break,,,4,,,1,,,,,,,,421565
1sxehsfr3q,1sxehsfr3q-1777055587172.csv,436,html-keyboard-response,reading,4239.0, ,4,upper_bound_only_some,True,1,The worker replied that,3.0,other,,,,,425806
1sxehsfr3q,1sxehsfr3q-1777055587172.csv,437,html-keyboard-response,reading,118.0, ,4,upper_bound_only_some,True,1,he had fed,4.0,other,,,,,425924
1sxehsfr3q,1sxehsfr3q-1777055587172.csv,438,html-keyboard-response,reading,312.0, ,4,upper_bound_only_some,True,1,only some of the lions.,5.0,trigger,,,,,426238
1sxehsfr3q,1sxehsfr3q-1777055587172.csv,439,html-keyboard-response,sentence_break,,,4,,,1,,,,,,,,427241
1sxehsfr3q,1sxehsfr3q-1777055587172.csv,440,html-keyboard-response,reading,201.0, ,4,upper_bound_only_some,True,1,The rest,7.0,target,,,,,427443
1sxehsfr3q,1sxehsfr3q-1777055587172.csv,441,html-keyboard-response,reading,186.0, ,4,upper_bound_only_some,True,1,were being examined by the vets,8.0,post_target,,,,,427630
1sxehsfr3q,1sxehsfr3q-1777055587172.csv,442,html-keyboard-response,reading,173.0, ,4,upper_bound_only_some,True,1,and would be fed later.,9.0,other,,,,,427804
1sxehsfr3q,1sxehsfr3q-1777055587172.csv,443,html-keyboard-response,reading,202.0, ,f3,filler,False,1,The manager called a meeting,0.0,other,,,,,428007
1sxehsfr3q,1sxehsfr3q-1777055587172.csv,444,html-keyboard-response,reading,192.0, ,f3,filler,False,1,to discuss the quarterly results.,1.0,other,,,,,428201
1sxehsfr3q,1sxehsfr3q-1777055587172.csv,445,html-keyboard-response,sentence_break,,,f3,,,1,,,,,,,,429206
1sxehsfr3q,1sxehsfr3q-1777055587172.csv,446,html-keyboard-response,reading,662.0, ,f3,filler,False,1,The sales team,3.0,other,,,,,429869
1sxehsfr3q,1sxehsfr3q-1777055587172.csv,447,html-keyboard-response,reading,208.0, ,f3,filler,False,1,had exceeded their targets,4.0,other,,,,,430078
1sxehsfr3q,1sxehsfr3q-1777055587172.csv,448,html-keyboard-response,reading,518.0, ,f3,filler,False,1,by a significant margin.,5.0,other,,,,,430597
1sxehsfr3q,1sxehsfr3q-1777055587172.csv,449,html-keyboard-response,comprehension,981.0,f,f3,,,1,,,,yes,Did the sales team exceed their targets?,yes,True,431579
1sxehsfr3q,1sxehsfr3q-1777055587172.csv,450,html-keyboard-response,reading,162.0, ,1,upper_bound_only_some,True,1,Mary asked John,0.0,other,,,,,431742
1sxehsfr3q,1sxehsfr3q-1777055587172.csv,451,html-keyboard-response,reading,161.0, ,1,upper_bound_only_some,True,1,whether he intended to host,1.0,other,,,,,431904
1sxehsfr3q,1sxehsfr3q-1777055587172.csv,452,html-keyboard-response,reading,161.0, ,1,upper_bound_only_some,True,1,all his relatives,2.0,other,,,,,432065
1sxehsfr3q,1sxehsfr3q-1777055587172.csv,453,html-keyboard-response,reading,253.0, ,1,upper_bound_only_some,True,1,in his tiny apartment.,3.0,other,,,,,432320
1sxehsfr3q,1sxehsfr3q-1777055587172.csv,454,html-keyboard-response,sentence_break,,,1,,,1,,,,,,,,433326
1sxehsfr3q,1sxehsfr3q-1777055587172.csv,455,html-keyboard-response,reading,148.0, ,1,upper_bound_only_some,True,1,John replied,5.0,other,,,,,433475
1sxehsfr3q,1sxehsfr3q-1777055587172.csv,456,html-keyboard-response,reading,208.0, ,1,upper_bound_only_some,True,1,that he intended to host,6.0,other,,,,,433684
1sxehsfr3q,1sxehsfr3q-1777055587172.csv,457,html-keyboard-response,reading,243.0, ,1,upper_bound_only_some,True,1,only some of his relatives.,7.0,trigger,,,,,433928
1sxehsfr3q,1sxehsfr3q-1777055587172.csv,458,html-keyboard-response,sentence_break,,,1,,,1,,,,,,,,434931
1sxehsfr3q,1sxehsfr3q-1777055587172.csv,459,html-keyboard-response,reading,51.0, ,1,upper_bound_only_some,True,1,The rest,9.0,target,,,,,434983
1sxehsfr3q,1sxehsfr3q-1777055587172.csv,460,html-keyboard-response,reading,227.0, ,1,upper_bound_only_some,True,1,would stay,10.0,post_target,,,,,435211
1sxehsfr3q,1sxehsfr3q-1777055587172.csv,461,html-keyboard-response,reading,229.0, ,1,upper_bound_only_some,True,1,in a nearby hotel.,11.0,other,,,,,435441
1sxehsfr3q,1sxehsfr3q-1777055587172.csv,462,html-keyboard-response,comprehension,535.0,f,1,,,1,,,,no,Was it his schoolmates that John intended to host?,yes,False,435978
1sxehsfr3q,1sxehsfr3q-1777055587172.csv,463,html-keyboard-response,reading,251.0, ,f17,filler,False,1,The electrician arrived,0.0,other,,,,,436230
1sxehsfr3q,1sxehsfr3q-1777055587172.csv,464,html-keyboard-response,reading,192.0, ,f17,filler,False,1,at the house early in the morning,1.0,other,,,,,436423
1sxehsfr3q,1sxehsfr3q-1777055587172.csv,465,html-keyboard-response,reading,185.0, ,f17,filler,False,1,to fix the wiring.,2.0,other,,,,,436610
1sxehsfr3q,1sxehsfr3q-1777055587172.csv,466,html-keyboard-response,sentence_break,,,f17,,,1,,,,,,,,437625
1sxehsfr3q,1sxehsfr3q-1777055587172.csv,467,html-keyboard-response,reading,220.0, ,f17,filler,False,1,He worked steadily,4.0,other,,,,,437846
1sxehsfr3q,1sxehsfr3q-1777055587172.csv,468,html-keyboard-response,reading,254.0, ,f17,filler,False,1,throughout the day,5.0,other,,,,,438102
1sxehsfr3q,1sxehsfr3q-1777055587172.csv,469,html-keyboard-response,reading,235.0, ,f17,filler,False,1,and finished by late afternoon.,6.0,other,,,,,438338
1sxehsfr3q,1sxehsfr3q-1777055587172.csv,470,html-keyboard-response,reading,217.0, ,f1,filler,False,1,The teacher announced,0.0,other,,,,,438556
1sxehsfr3q,1sxehsfr3q-1777055587172.csv,471,html-keyboard-response,reading,227.0, ,f1,filler,False,1,that the school trip,1.0,other,,,,,438784
1sxehsfr3q,1sxehsfr3q-1777055587172.csv,472,html-keyboard-response,reading,215.0, ,f1,filler,False,1,would take place on Friday.,2.0,other,,,,,439000
1sxehsfr3q,1sxehsfr3q-1777055587172.csv,473,html-keyboard-response,sentence_break,,,f1,,,1,,,,,,,,440003
1sxehsfr3q,1sxehsfr3q-1777055587172.csv,474,html-keyboard-response,reading,86.0, ,f1,filler,False,1,The students,4.0,other,,,,,440089
1sxehsfr3q,1sxehsfr3q-1777055587172.csv,475,html-keyboard-response,reading,175.0, ,f1,filler,False,1,were very excited,5.0,other,,,,,440265
1sxehsfr3q,1sxehsfr3q-1777055587172.csv,476,html-keyboard-response,reading,170.0, ,f1,filler,False,1,about the visit to the museum.,6.0,other,,,,,440436
1sxehsfr3q,1sxehsfr3q-1777055587172.csv,477,html-keyboard-response,reading,154.0, ,17,lower_bound_some,True,1,Over lunch the assistant was telling a colleague,0.0,other,,,,,440591
1sxehsfr3q,1sxehsfr3q-1777055587172.csv,478,html-keyboard-response,reading,154.0, ,17,lower_bound_some,True,1,about her busy morning,1.0,other,,,,,440746
1sxehsfr3q,1sxehsfr3q-1777055587172.csv,479,html-keyboard-response,reading,179.0, ,17,lower_bound_some,True,1,at the office.,2.0,other,,,,,440926
1sxehsfr3q,1sxehsfr3q-1777055587172.csv,480,html-keyboard-response,sentence_break,,,17,,,1,,,,,,,,441928
1sxehsfr3q,1sxehsfr3q-1777055587172.csv,481,html-keyboard-response,reading,310.0, ,17,lower_bound_some,True,1,She mentioned,4.0,other,,,,,442240
1sxehsfr3q,1sxehsfr3q-1777055587172.csv,482,html-keyboard-response,reading,120.0, ,17,lower_bound_some,True,1,that she had reviewed,5.0,other,,,,,442361
1sxehsfr3q,1sxehsfr3q-1777055587172.csv,483,html-keyboard-response,reading,214.0, ,17,lower_bound_some,True,1,some of the reports.,6.0,trigger,,,,,442576
1sxehsfr3q,1sxehsfr3q-1777055587172.csv,484,html-keyboard-response,sentence_break,,,17,,,1,,,,,,,,443579
1sxehsfr3q,1sxehsfr3q-1777055587172.csv,485,html-keyboard-response,reading,38.0, ,17,lower_bound_some,True,1,The rest,8.0,target,,,,,443618
1sxehsfr3q,1sxehsfr3q-1777055587172.csv,486,html-keyboard-response,reading,162.0, ,17,lower_bound_some,True,1,contained complex data,9.0,post_target,,,,,443781
1sxehsfr3q,1sxehsfr3q-1777055587172.csv,487,html-keyboard-response,reading,185.0, ,17,lower_bound_some,True,1,that needed further analysis.,10.0,other,,,,,443966
1sxehsfr3q,1sxehsfr3q-1777055587172.csv,488,html-keyboard-response,reading,157.0, ,f22,filler,False,1,Karen received,0.0,other,,,,,444124
1sxehsfr3q,1sxehsfr3q-1777055587172.csv,489,html-keyboard-response,reading,143.0, ,f22,filler,False,1,a promotion at work,1.0,other,,,,,444268
1sxehsfr3q,1sxehsfr3q-1777055587172.csv,490,html-keyboard-response,reading,394.0, ,f22,filler,False,1,after her outstanding performance.,2.0,other,,,,,444663
1sxehsfr3q,1sxehsfr3q-1777055587172.csv,491,html-keyboard-response,sentence_break,,,f22,,,1,,,,,,,,445665
1sxehsfr3q,1sxehsfr3q-1777055587172.csv,492,html-keyboard-response,reading,281.0, ,f22,filler,False,1,Her team celebrated,4.0,other,,,,,445947
1sxehsfr3q,1sxehsfr3q-1777055587172.csv,493,html-keyboard-response,reading,148.0, ,f22,filler,False,1,with a small party,5.0,other,,,,,446096
1sxehsfr3q,1sxehsfr3q-1777055587172.csv,494,html-keyboard-response,reading,330.0, ,f22,filler,False,1,in the office kitchen.,6.0,other,,,,,446427
1sxehsfr3q,1sxehsfr3q-1777055587172.csv,495,html-keyboard-response,debrief,224.0, ,,,,1,,,,,,,,446652
6qm8rsb3za,6qm8rsb3za.csv,0,html-keyboard-response,,6164.0, ,,,,,,,,,,,,6166
6qm8rsb3za,6qm8rsb3za.csv,1,html-keyboard-response,,10836.0, ,,,,,,,,,,,,17005
6qm8rsb3za,6qm8rsb3za.csv,2,html-keyboard-response,reading,2612.0, ,p1,practice,False,1,The baker woke up early,0.0,other,,,,,19619
6qm8rsb3za,6qm8rsb3za.csv,3,html-keyboard-response,reading,1295.0, ,p1,practice,False,1,to prepare the bread,1.0,other,,,,,20915
6qm8rsb3za,6qm8rsb3za.csv,4,html-keyboard-response,reading,1330.0, ,p1,practice,False,1,for the morning customers.,2.0,other,,,,,22246
6qm8rsb3za,6qm8rsb3za.csv,5,html-keyboard-response,sentence_break,,,p1,,,,,,,,,,,23249
6qm8rsb3za,6qm8rsb3za.csv,6,html-keyboard-response,reading,1068.0, ,p1,practice,False,1,He mixed the dough,4.0,other,,,,,24318
6qm8rsb3za,6qm8rsb3za.csv,7,html-keyboard-response,reading,1133.0, ,p1,practice,False,1,and put it in the oven,5.0,other,,,,,25452
6qm8rsb3za,6qm8rsb3za.csv,8,html-keyboard-response,reading,1069.0, ,p1,practice,False,1,before sunrise.,6.0,other,,,,,26523
6qm8rsb3za,6qm8rsb3za.csv,9,html-keyboard-response,reading,1089.0, ,p2,practice,False,1,Anna took the bus,0.0,other,,,,,27612
6qm8rsb3za,6qm8rsb3za.csv,10,html-keyboard-response,reading,1345.0, ,p2,practice,False,1,to the city centre,1.0,other,,,,,28958
6qm8rsb3za,6qm8rsb3za.csv,11,html-keyboard-response,reading,865.0, ,p2,practice,False,1,to meet her friend.,2.0,other,,,,,29823
6qm8rsb3za,6qm8rsb3za.csv,12,html-keyboard-response,sentence_break,,,p2,,,,,,,,,,,30825
6qm8rsb3za,6qm8rsb3za.csv,13,html-keyboard-response,reading,411.0, ,p2,practice,False,1,They had lunch together,4.0,other,,,,,31237
6qm8rsb3za,6qm8rsb3za.csv,14,html-keyboard-response,reading,958.0, ,p2,practice,False,1,at a small Italian restaurant,5.0,other,,,,,32196
6qm8rsb3za,6qm8rsb3za.csv,15,html-keyboard-response,reading,1083.0, ,p2,practice,False,1,near the park.,6.0,other,,,,,33280
6qm8rsb3za,6qm8rsb3za.csv,16,html-keyboard-response,comprehension,1989.0,f,p2,,,,,,,no,Did Anna drive to the city centre?,yes,False,35270
6qm8rsb3za,6qm8rsb3za.csv,17,html-keyboard-response,reading,1060.0, ,p3,practice,False,1,The children played,0.0,other,,,,,36330
6qm8rsb3za,6qm8rsb3za.csv,18,html-keyboard-response,reading,1480.0, ,p3,practice,False,1,in the garden,1.0,other,,,,,37811
6qm8rsb3za,6qm8rsb3za.csv,19,html-keyboard-response,reading,1088.0, ,p3,practice,False,1,until it got dark.,2.0,other,,,,,38900
6qm8rsb3za,6qm8rsb3za.csv,20,html-keyboard-response,sentence_break,,,p3,,,,,,,,,,,39902
6qm8rsb3za,6qm8rsb3za.csv,21,html-keyboard-response,reading,836.0, ,p3,practice,False,1,Their parents called them inside,4.0,other,,,,,40739
6qm8rsb3za,6qm8rsb3za.csv,22,html-keyboard-response,reading,1398.0, ,p3,practice,False,1,for dinner,5.0,other,,,,,42138
6qm8rsb3za,6qm8rsb3za.csv,23,html-keyboard-response,reading,1090.0, ,p3,practice,False,1,and they came running.,6.0,other,,,,,43229
6qm8rsb3za,6qm8rsb3za.csv,24,html-keyboard-response,,3990.0, ,,,,,,,,,,,,47219
6qm8rsb3za,6qm8rsb3za.csv,25,html-keyboard-response,reading,1193.0, ,f11,filler,False,1,The professor assigned,0.0,other,,,,,48413
6qm8rsb3za,6qm8rsb3za.csv,26,html-keyboard-response,reading,1918.0, ,f11,filler,False,1,a challenging essay topic,1.0,other,,,,,50332
6qm8rsb3za,6qm8rsb3za.csv,27,html-keyboard-response,reading,13211.0, ,f11,filler,False,1,for the final exam.,2.0,other,,,,,63543
6qm8rsb3za,6qm8rsb3za.csv,28,html-keyboard-response,sentence_break,,,f11,,,,,,,,,,,64545
6qm8rsb3za,6qm8rsb3za.csv,29,html-keyboard-response,reading,957.0, ,f11,filler,False,1,The students spent the weekend,4.0,other,,,,,65502
6qm8rsb3za,6qm8rsb3za.csv,30,html-keyboard-response,reading,969.0, ,f11,filler,False,1,researching and writing,5.0,other,,,,,66471
6qm8rsb3za,6qm8rsb3za.csv,31,html-keyboard-response,reading,814.0, ,f11,filler,False,1,their arguments carefully.,6.0,other,,,,,67286
6qm8rsb3za,6qm8rsb3za.csv,32,html-keyboard-response,reading,986.0, ,11,lower_bound_some,True,1,The artist returned home,0.0,other,,,,,68273
6qm8rsb3za,6qm8rsb3za.csv,33,html-keyboard-response,reading,848.0, ,11,lower_bound_some,True,1,after a long and busy weekend,1.0,other,,,,,69121
6qm8rsb3za,6qm8rsb3za.csv,34,html-keyboard-response,reading,963.0, ,11,lower_bound_some,True,1,at the annual exhibition.,2.0,other,,,,,70085
6qm8rsb3za,6qm8rsb3za.csv,35,html-keyboard-response,sentence_break,,,11,,,,,,,,,,,71087
6qm8rsb3za,6qm8rsb3za.csv,36,html-keyboard-response,reading,755.0, ,11,lower_bound_some,True,1,She mentioned,4.0,other,,,,,71842
6qm8rsb3za,6qm8rsb3za.csv,37,html-keyboard-response,reading,974.0, ,11,lower_bound_some,True,1,that she had sold,5.0,other,,,,,72816
6qm8rsb3za,6qm8rsb3za.csv,38,html-keyboard-response,reading,927.0, ,11,lower_bound_some,True,1,some of her paintings.,6.0,trigger,,,,,73744
6qm8rsb3za,6qm8rsb3za.csv,39,html-keyboard-response,sentence_break,,,11,,,,,,,,,,,74745
6qm8rsb3za,6qm8rsb3za.csv,40,html-keyboard-response,reading,787.0, ,11,lower_bound_some,True,1,The rest,8.0,target,,,,,75533
6qm8rsb3za,6qm8rsb3za.csv,41,html-keyboard-response,reading,1202.0, ,11,lower_bound_some,True,1,were still on display,9.0,post_target,,,,,76736
6qm8rsb3za,6qm8rsb3za.csv,42,html-keyboard-response,reading,1388.0, ,11,lower_bound_some,True,1,at the gallery.,10.0,other,,,,,78125
6qm8rsb3za,6qm8rsb3za.csv,43,html-keyboard-response,reading,1090.0, ,f10,filler,False,1,The flight was delayed,0.0,other,,,,,79216
6qm8rsb3za,6qm8rsb3za.csv,44,html-keyboard-response,reading,882.0, ,f10,filler,False,1,by two hours,1.0,other,,,,,80099
6qm8rsb3za,6qm8rsb3za.csv,45,html-keyboard-response,reading,521.0, ,f10,filler,False,1,due to bad weather.,2.0,other,,,,,80621
6qm8rsb3za,6qm8rsb3za.csv,46,html-keyboard-response,sentence_break,,,f10,,,,,,,,,,,81622
6qm8rsb3za,6qm8rsb3za.csv,47,html-keyboard-response,reading,330.0, ,f10,filler,False,1,The passengers waited patiently,4.0,other,,,,,81953
6qm8rsb3za,6qm8rsb3za.csv,48,html-keyboard-response,reading,573.0, ,f10,filler,False,1,in the departure lounge,5.0,other,,,,,82526
6qm8rsb3za,6qm8rsb3za.csv,49,html-keyboard-response,reading,835.0, ,f10,filler,False,1,reading books and magazines.,6.0,other,,,,,83361
6qm8rsb3za,6qm8rsb3za.csv,50,html-keyboard-response,reading,690.0, ,18,upper_bound_some,True,1,The HR manager asked the panel,0.0,other,,,,,84051
6qm8rsb3za,6qm8rsb3za.csv,51,html-keyboard-response,reading,833.0, ,18,upper_bound_some,True,1,whether they had managed to interview,1.0,other,,,,,84885
6qm8rsb3za,6qm8rsb3za.csv,52,html-keyboard-response,reading,744.0, ,18,upper_bound_some,True,1,all the candidates,2.0,other,,,,,85630
6qm8rsb3za,6qm8rsb3za.csv,53,html-keyboard-response,reading,812.0, ,18,upper_bound_some,True,1,for the open position.,3.0,other,,,,,86443
6qm8rsb3za,6qm8rsb3za.csv,54,html-keyboard-response,sentence_break,,,18,,,,,,,,,,,87444
6qm8rsb3za,6qm8rsb3za.csv,55,html-keyboard-response,reading,353.0, ,18,upper_bound_some,True,1,The panel chair replied,5.0,other,,,,,87798
6qm8rsb3za,6qm8rsb3za.csv,56,html-keyboard-response,reading,489.0, ,18,upper_bound_some,True,1,that they had interviewed,6.0,other,,,,,88287
6qm8rsb3za,6qm8rsb3za.csv,57,html-keyboard-response,reading,642.0, ,18,upper_bound_some,True,1,some of the candidates.,7.0,trigger,,,,,88930
6qm8rsb3za,6qm8rsb3za.csv,58,html-keyboard-response,sentence_break,,,18,,,,,,,,,,,89931
6qm8rsb3za,6qm8rsb3za.csv,59,html-keyboard-response,reading,266.0, ,18,upper_bound_some,True,1,The others,9.0,target,,,,,90198
6qm8rsb3za,6qm8rsb3za.csv,60,html-keyboard-response,reading,473.0, ,18,upper_bound_some,True,1,were scheduled to come in,10.0,post_target,,,,,90671
6qm8rsb3za,6qm8rsb3za.csv,61,html-keyboard-response,reading,519.0, ,18,upper_bound_some,True,1,the following afternoon.,11.0,other,,,,,91191
6qm8rsb3za,6qm8rsb3za.csv,62,html-keyboard-response,reading,459.0, ,4,upper_bound_only_some,True,1,The warden of the zoo,0.0,other,,,,,91650
6qm8rsb3za,6qm8rsb3za.csv,63,html-keyboard-response,reading,593.0, ,4,upper_bound_only_some,True,1,asked whether all the lions had been fed.,1.0,other,,,,,92244
6qm8rsb3za,6qm8rsb3za.csv,64,html-keyboard-response,sentence_break,,,4,,,,,,,,,,,93245
6qm8rsb3za,6qm8rsb3za.csv,65,html-keyboard-response,reading,301.0, ,4,upper_bound_only_some,True,1,The worker replied that,3.0,other,,,,,93547
6qm8rsb3za,6qm8rsb3za.csv,66,html-keyboard-response,reading,393.0, ,4,upper_bound_only_some,True,1,he had fed,4.0,other,,,,,93941
6qm8rsb3za,6qm8rsb3za.csv,67,html-keyboard-response,reading,370.0, ,4,upper_bound_only_some,True,1,only some of the lions.,5.0,trigger,,,,,94312
6qm8rsb3za,6qm8rsb3za.csv,68,html-keyboard-response,sentence_break,,,4,,,,,,,,,,,95314
6qm8rsb3za,6qm8rsb3za.csv,69,html-keyboard-response,reading,248.0, ,4,upper_bound_only_some,True,1,The rest,7.0,target,,,,,95563
6qm8rsb3za,6qm8rsb3za.csv,70,html-keyboard-response,reading,417.0, ,4,upper_bound_only_some,True,1,were being examined by the vets,8.0,post_target,,,,,95981
6qm8rsb3za,6qm8rsb3za.csv,71,html-keyboard-response,reading,420.0, ,4,upper_bound_only_some,True,1,and would be fed later.,9.0,other,,,,,96401
6qm8rsb3za,6qm8rsb3za.csv,72,html-keyboard-response,reading,432.0, ,f3,filler,False,1,The manager called a meeting,0.0,other,,,,,96834
6qm8rsb3za,6qm8rsb3za.csv,73,html-keyboard-response,reading,454.0, ,f3,filler,False,1,to discuss the quarterly results.,1.0,other,,,,,97288
6qm8rsb3za,6qm8rsb3za.csv,74,html-keyboard-response,sentence_break,,,f3,,,,,,,,,,,98290
6qm8rsb3za,6qm8rsb3za.csv,75,html-keyboard-response,reading,339.0, ,f3,filler,False,1,The sales team,3.0,other,,,,,98630
6qm8rsb3za,6qm8rsb3za.csv,76,html-keyboard-response,reading,358.0, ,f3,filler,False,1,had exceeded their targets,4.0,other,,,,,98988
6qm8rsb3za,6qm8rsb3za.csv,77,html-keyboard-response,reading,334.0, ,f3,filler,False,1,by a significant margin.,5.0,other,,,,,99323
6qm8rsb3za,6qm8rsb3za.csv,78,html-keyboard-response,comprehension,2062.0,f,f3,,,,,,,yes,Did the sales team exceed their targets?,yes,True,101386
6qm8rsb3za,6qm8rsb3za.csv,79,html-keyboard-response,reading,762.0, ,13,upper_bound_only_some,True,1,The hotel manager came to find out,0.0,other,,,,,102147
6qm8rsb3za,6qm8rsb3za.csv,80,html-keyboard-response,reading,756.0, ,13,upper_bound_only_some,True,1,whether the cleaner had finished,1.0,other,,,,,102903
6qm8rsb3za,6qm8rsb3za.csv,81,html-keyboard-response,reading,461.0, ,13,upper_bound_only_some,True,1,all the rooms,2.0,other,,,,,103365
6qm8rsb3za,6qm8rsb3za.csv,82,html-keyboard-response,reading,733.0, ,13,upper_bound_only_some,True,1,on the third floor.,3.0,other,,,,,104098
6qm8rsb3za,6qm8rsb3za.csv,83,html-keyboard-response,sentence_break,,,13,,,,,,,,,,,105100
6qm8rsb3za,6qm8rsb3za.csv,84,html-keyboard-response,reading,332.0, ,13,upper_bound_only_some,True,1,The cleaner replied,5.0,other,,,,,105433
6qm8rsb3za,6qm8rsb3za.csv,85,html-keyboard-response,reading,756.0, ,13,upper_bound_only_some,True,1,that she had cleaned,6.0,other,,,,,106190
6qm8rsb3za,6qm8rsb3za.csv,86,html-keyboard-response,reading,902.0, ,13,upper_bound_only_some,True,1,only some of the rooms.,7.0,trigger,,,,,107093
6qm8rsb3za,6qm8rsb3za.csv,87,html-keyboard-response,sentence_break,,,13,,,,,,,,,,,108095
6qm8rsb3za,6qm8rsb3za.csv,88,html-keyboard-response,reading,444.0, ,13,upper_bound_only_some,True,1,The rest,9.0,target,,,,,108540
6qm8rsb3za,6qm8rsb3za.csv,89,html-keyboard-response,reading,784.0, ,13,upper_bound_only_some,True,1,were still occupied,10.0,post_target,,,,,109325
6qm8rsb3za,6qm8rsb3za.csv,90,html-keyboard-response,reading,297.0, ,13,upper_bound_only_some,True,1,by late checkout guests.,11.0,other,,,,,109623
6qm8rsb3za,6qm8rsb3za.csv,91,html-keyboard-response,reading,857.0, ,f22,filler,False,1,Karen received,0.0,other,,,,,110481
6qm8rsb3za,6qm8rsb3za.csv,92,html-keyboard-response,reading,422.0, ,f22,filler,False,1,a promotion at work,1.0,other,,,,,110904
6qm8rsb3za,6qm8rsb3za.csv,93,html-keyboard-response,reading,561.0, ,f22,filler,False,1,after her outstanding performance.,2.0,other,,,,,111465
6qm8rsb3za,6qm8rsb3za.csv,94,html-keyboard-response,sentence_break,,,f22,,,,,,,,,,,112466
6qm8rsb3za,6qm8rsb3za.csv,95,html-keyboard-response,reading,2.0, ,f22,filler,False,1,Her team celebrated,4.0,other,,,,,112469
6qm8rsb3za,6qm8rsb3za.csv,96,html-keyboard-response,reading,653.0, ,f22,filler,False,1,with a small party,5.0,other,,,,,113122
6qm8rsb3za,6qm8rsb3za.csv,97,html-keyboard-response,reading,457.0, ,f22,filler,False,1,in the office kitchen.,6.0,other,,,,,113579
6qm8rsb3za,6qm8rsb3za.csv,98,html-keyboard-response,reading,688.0, ,f2,filler,False,1,Sarah went to the supermarket,0.0,other,,,,,114266
6qm8rsb3za,6qm8rsb3za.csv,99,html-keyboard-response,reading,469.0, ,f2,filler,False,1,to buy ingredients,1.0,other,,,,,114736
6qm8rsb3za,6qm8rsb3za.csv,100,html-keyboard-response,reading,414.0, ,f2,filler,False,1,for the dinner party.,2.0,other,,,,,115150
6qm8rsb3za,6qm8rsb3za.csv,101,html-keyboard-response,sentence_break,,,f2,,,,,,,,,,,116152
6qm8rsb3za,6qm8rsb3za.csv,102,html-keyboard-response,reading,593.0, ,f2,filler,False,1,She picked up,4.0,other,,,,,116746
6qm8rsb3za,6qm8rsb3za.csv,103,html-keyboard-response,reading,288.0, ,f2,filler,False,1,fresh vegetables,5.0,other,,,,,117035
6qm8rsb3za,6qm8rsb3za.csv,104,html-keyboard-response,reading,320.0, ,f2,filler,False,1,and a bottle of wine.,6.0,other,,,,,117355
6qm8rsb3za,6qm8rsb3za.csv,105,html-keyboard-response,reading,398.0, ,f25,filler,False,1,The swimmer dove,0.0,other,,,,,117753
6qm8rsb3za,6qm8rsb3za.csv,106,html-keyboard-response,reading,542.0, ,f25,filler,False,1,into the pool,1.0,other,,,,,118296
6qm8rsb3za,6qm8rsb3za.csv,107,html-keyboard-response,reading,455.0, ,f25,filler,False,1,at the sound of the whistle.,2.0,other,,,,,118751
6qm8rsb3za,6qm8rsb3za.csv,108,html-keyboard-response,sentence_break,,,f25,,,,,,,,,,,119752
6qm8rsb3za,6qm8rsb3za.csv,109,html-keyboard-response,reading,366.0, ,f25,filler,False,1,She completed the lap,4.0,other,,,,,120118
6qm8rsb3za,6qm8rsb3za.csv,110,html-keyboard-response,reading,251.0, ,f25,filler,False,1,in record time,5.0,other,,,,,120370
6qm8rsb3za,6qm8rsb3za.csv,111,html-keyboard-response,reading,642.0, ,f25,filler,False,1,and qualified for the finals.,6.0,other,,,,,121012
6qm8rsb3za,6qm8rsb3za.csv,112,html-keyboard-response,reading,354.0, ,f24,filler,False,1,The mechanic inspected,0.0,other,,,,,121366
6qm8rsb3za,6qm8rsb3za.csv,113,html-keyboard-response,reading,821.0, ,f24,filler,False,1,the engine carefully,1.0,other,,,,,122188
6qm8rsb3za,6qm8rsb3za.csv,114,html-keyboard-response,reading,490.0, ,f24,filler,False,1,before giving his assessment.,2.0,other,,,,,122678
6qm8rsb3za,6qm8rsb3za.csv,115,html-keyboard-response,sentence_break,,,f24,,,,,,,,,,,123680
6qm8rsb3za,6qm8rsb3za.csv,116,html-keyboard-response,reading,571.0, ,f24,filler,False,1,He told the owner,4.0,other,,,,,124252
6qm8rsb3za,6qm8rsb3za.csv,117,html-keyboard-response,reading,351.0, ,f24,filler,False,1,that the car needed,5.0,other,,,,,124603
6qm8rsb3za,6qm8rsb3za.csv,118,html-keyboard-response,reading,674.0, ,f24,filler,False,1,a new set of brake pads.,6.0,other,,,,,125277
6qm8rsb3za,6qm8rsb3za.csv,119,html-keyboard-response,reading,1557.0, ,f19,filler,False,1,The chef prepared,0.0,other,,,,,126835
6qm8rsb3za,6qm8rsb3za.csv,120,html-keyboard-response,reading,1166.0, ,f19,filler,False,1,an elaborate five-course meal,1.0,other,,,,,128001
6qm8rsb3za,6qm8rsb3za.csv,121,html-keyboard-response,reading,919.0, ,f19,filler,False,1,for the anniversary dinner.,2.0,other,,,,,128920
6qm8rsb3za,6qm8rsb3za.csv,122,html-keyboard-response,sentence_break,,,f19,,,,,,,,,,,129922
6qm8rsb3za,6qm8rsb3za.csv,123,html-keyboard-response,reading,837.0, ,f19,filler,False,1,The guests were impressed,4.0,other,,,,,130759
6qm8rsb3za,6qm8rsb3za.csv,124,html-keyboard-response,reading,757.0, ,f19,filler,False,1,by the quality of the food,5.0,other,,,,,131517
6qm8rsb3za,6qm8rsb3za.csv,125,html-keyboard-response,reading,1052.0, ,f19,filler,False,1,and the beautiful presentation.,6.0,other,,,,,132570
6qm8rsb3za,6qm8rsb3za.csv,126,html-keyboard-response,comprehension,2657.0,f,f19,,,,,,,no,Was the meal prepared for a birthday?,yes,False,135227
6qm8rsb3za,6qm8rsb3za.csv,127,html-keyboard-response,reading,1016.0, ,f27,filler,False,1,Peter forgot,0.0,other,,,,,136244
6qm8rsb3za,6qm8rsb3za.csv,128,html-keyboard-response,reading,1205.0, ,f27,filler,False,1,to set his alarm,1.0,other,,,,,137449
6qm8rsb3za,6qm8rsb3za.csv,129,html-keyboard-response,reading,1712.0, ,f27,filler,False,1,the night before the interview.,2.0,other,,,,,139162
6qm8rsb3za,6qm8rsb3za.csv,130,html-keyboard-response,sentence_break,,,f27,,,,,,,,,,,140163
6qm8rsb3za,6qm8rsb3za.csv,131,html-keyboard-response,reading,421.0, ,f27,filler,False,1,He woke up late,4.0,other,,,,,140585
6qm8rsb3za,6qm8rsb3za.csv,132,html-keyboard-response,reading,698.0, ,f27,filler,False,1,and had to rush,5.0,other,,,,,141284
6qm8rsb3za,6qm8rsb3za.csv,133,html-keyboard-response,reading,694.0, ,f27,filler,False,1,to get to the office on time.,6.0,other,,,,,141978
6qm8rsb3za,6qm8rsb3za.csv,134,html-keyboard-response,reading,807.0, ,14,lower_bound_some,True,1,The professor was in his office,0.0,other,,,,,142785
6qm8rsb3za,6qm8rsb3za.csv,135,html-keyboard-response,reading,1042.0, ,14,lower_bound_some,True,1,looking quite tired,1.0,other,,,,,143828
6qm8rsb3za,6qm8rsb3za.csv,136,html-keyboard-response,reading,995.0, ,14,lower_bound_some,True,1,after a very long day.,2.0,other,,,,,144825
6qm8rsb3za,6qm8rsb3za.csv,137,html-keyboard-response,sentence_break,,,14,,,,,,,,,,,145826
6qm8rsb3za,6qm8rsb3za.csv,138,html-keyboard-response,reading,702.0, ,14,lower_bound_some,True,1,He mentioned,4.0,other,,,,,146529
6qm8rsb3za,6qm8rsb3za.csv,139,html-keyboard-response,reading,855.0, ,14,lower_bound_some,True,1,that he had graded,5.0,other,,,,,147385
6qm8rsb3za,6qm8rsb3za.csv,140,html-keyboard-response,reading,912.0, ,14,lower_bound_some,True,1,some of the essays.,6.0,trigger,,,,,148298
6qm8rsb3za,6qm8rsb3za.csv,141,html-keyboard-response,sentence_break,,,14,,,,,,,,,,,149299
6qm8rsb3za,6qm8rsb3za.csv,142,html-keyboard-response,reading,415.0, ,14,lower_bound_some,True,1,The others,8.0,target,,,,,149715
6qm8rsb3za,6qm8rsb3za.csv,143,html-keyboard-response,reading,798.0, ,14,lower_bound_some,True,1,required more careful attention,9.0,post_target,,,,,150513
6qm8rsb3za,6qm8rsb3za.csv,144,html-keyboard-response,reading,752.0, ,14,lower_bound_some,True,1,and would take extra time.,10.0,other,,,,,151265
6qm8rsb3za,6qm8rsb3za.csv,145,html-keyboard-response,reading,717.0, ,f17,filler,False,1,The electrician arrived,0.0,other,,,,,151983
6qm8rsb3za,6qm8rsb3za.csv,146,html-keyboard-response,reading,828.0, ,f17,filler,False,1,at the house early in the morning,1.0,other,,,,,152812
6qm8rsb3za,6qm8rsb3za.csv,147,html-keyboard-response,reading,844.0, ,f17,filler,False,1,to fix the wiring.,2.0,other,,,,,153657
6qm8rsb3za,6qm8rsb3za.csv,148,html-keyboard-response,sentence_break,,,f17,,,,,,,,,,,154658
6qm8rsb3za,6qm8rsb3za.csv,149,html-keyboard-response,reading,501.0, ,f17,filler,False,1,He worked steadily,4.0,other,,,,,155160
6qm8rsb3za,6qm8rsb3za.csv,150,html-keyboard-response,reading,1129.0, ,f17,filler,False,1,throughout the day,5.0,other,,,,,156289
6qm8rsb3za,6qm8rsb3za.csv,151,html-keyboard-response,reading,701.0, ,f17,filler,False,1,and finished by late afternoon.,6.0,other,,,,,156990
6qm8rsb3za,6qm8rsb3za.csv,152,html-keyboard-response,reading,669.0, ,f36,filler,False,1,The scientist published,0.0,other,,,,,157659
6qm8rsb3za,6qm8rsb3za.csv,153,html-keyboard-response,reading,848.0, ,f36,filler,False,1,her findings in a leading journal,1.0,other,,,,,158508
6qm8rsb3za,6qm8rsb3za.csv,154,html-keyboard-response,reading,894.0, ,f36,filler,False,1,after years of research.,2.0,other,,,,,159403
6qm8rsb3za,6qm8rsb3za.csv,155,html-keyboard-response,sentence_break,,,f36,,,,,,,,,,,160405
6qm8rsb3za,6qm8rsb3za.csv,156,html-keyboard-response,reading,373.0, ,f36,filler,False,1,The paper attracted attention,4.0,other,,,,,160779
6qm8rsb3za,6qm8rsb3za.csv,157,html-keyboard-response,reading,459.0, ,f36,filler,False,1,from colleagues worldwide,5.0,other,,,,,161238
6qm8rsb3za,6qm8rsb3za.csv,158,html-keyboard-response,reading,933.0, ,f36,filler,False,1,and was widely cited.,6.0,other,,,,,162171
6qm8rsb3za,6qm8rsb3za.csv,159,html-keyboard-response,reading,618.0, ,f5,filler,False,1,The librarian noticed,0.0,other,,,,,162790
6qm8rsb3za,6qm8rsb3za.csv,160,html-keyboard-response,reading,460.0, ,f5,filler,False,1,that several books,1.0,other,,,,,163251
6qm8rsb3za,6qm8rsb3za.csv,161,html-keyboard-response,reading,550.0, ,f5,filler,False,1,were missing from the shelves.,2.0,other,,,,,163802
6qm8rsb3za,6qm8rsb3za.csv,162,html-keyboard-response,sentence_break,,,f5,,,,,,,,,,,164804
6qm8rsb3za,6qm8rsb3za.csv,163,html-keyboard-response,reading,349.0, ,f5,filler,False,1,She checked the records,4.0,other,,,,,165154
6qm8rsb3za,6qm8rsb3za.csv,164,html-keyboard-response,reading,542.0, ,f5,filler,False,1,and found that they had been,5.0,other,,,,,165697
6qm8rsb3za,6qm8rsb3za.csv,165,html-keyboard-response,reading,554.0, ,f5,filler,False,1,borrowed last week.,6.0,other,,,,,166251
6qm8rsb3za,6qm8rsb3za.csv,166,html-keyboard-response,reading,421.0, ,f14,filler,False,1,The couple decided,0.0,other,,,,,166673
6qm8rsb3za,6qm8rsb3za.csv,167,html-keyboard-response,reading,388.0, ,f14,filler,False,1,to adopt a rescue dog,1.0,other,,,,,167061
6qm8rsb3za,6qm8rsb3za.csv,168,html-keyboard-response,reading,468.0, ,f14,filler,False,1,from the local shelter.,2.0,other,,,,,167530
6qm8rsb3za,6qm8rsb3za.csv,169,html-keyboard-response,sentence_break,,,f14,,,,,,,,,,,168532
6qm8rsb3za,6qm8rsb3za.csv,170,html-keyboard-response,reading,763.0, ,f14,filler,False,1,They named the puppy Max,4.0,other,,,,,169296
6qm8rsb3za,6qm8rsb3za.csv,171,html-keyboard-response,reading,1088.0, ,f14,filler,False,1,and took him home,5.0,other,,,,,170384
6qm8rsb3za,6qm8rsb3za.csv,172,html-keyboard-response,reading,1025.0, ,f14,filler,False,1,that same afternoon.,6.0,other,,,,,171410
6qm8rsb3za,6qm8rsb3za.csv,173,html-keyboard-response,comprehension,3224.0,j,f14,,,,,,,no,Did the couple buy the dog from a breeder?,no,True,174634
6qm8rsb3za,6qm8rsb3za.csv,174,html-keyboard-response,reading,1102.0, ,f29,filler,False,1,The nurse checked,0.0,other,,,,,175736
6qm8rsb3za,6qm8rsb3za.csv,175,html-keyboard-response,reading,753.0, ,f29,filler,False,1,the patient's temperature,1.0,other,,,,,176489
6qm8rsb3za,6qm8rsb3za.csv,176,html-keyboard-response,reading,914.0, ,f29,filler,False,1,every two hours.,2.0,other,,,,,177404
6qm8rsb3za,6qm8rsb3za.csv,177,html-keyboard-response,sentence_break,,,f29,,,,,,,,,,,178406
6qm8rsb3za,6qm8rsb3za.csv,178,html-keyboard-response,reading,901.0, ,f29,filler,False,1,By the evening,4.0,other,,,,,179307
6qm8rsb3za,6qm8rsb3za.csv,179,html-keyboard-response,reading,798.0, ,f29,filler,False,1,the fever had gone down,5.0,other,,,,,180105
6qm8rsb3za,6qm8rsb3za.csv,180,html-keyboard-response,reading,1098.0, ,f29,filler,False,1,and the patient was feeling much better.,6.0,other,,,,,181204
6qm8rsb3za,6qm8rsb3za.csv,181,html-keyboard-response,comprehension,2569.0,j,f29,,,,,,,no,Did the fever stay the same?,no,True,183773
6qm8rsb3za,6qm8rsb3za.csv,182,html-keyboard-response,reading,1861.0, ,f7,filler,False,1,Emily started her new job,0.0,other,,,,,185634
6qm8rsb3za,6qm8rsb3za.csv,183,html-keyboard-response,reading,1794.0, ,f7,filler,False,1,at the marketing firm,1.0,other,,,,,187428
6qm8rsb3za,6qm8rsb3za.csv,184,html-keyboard-response,reading,707.0, ,f7,filler,False,1,on a Monday morning.,2.0,other,,,,,188136
6qm8rsb3za,6qm8rsb3za.csv,185,html-keyboard-response,sentence_break,,,f7,,,,,,,,,,,189138
6qm8rsb3za,6qm8rsb3za.csv,186,html-keyboard-response,reading,953.0, ,f7,filler,False,1,Her colleagues,4.0,other,,,,,190093
6qm8rsb3za,6qm8rsb3za.csv,187,html-keyboard-response,reading,909.0, ,f7,filler,False,1,welcomed her warmly,5.0,other,,,,,191002
6qm8rsb3za,6qm8rsb3za.csv,188,html-keyboard-response,reading,1530.0, ,f7,filler,False,1,and showed her around the office.,6.0,other,,,,,192532
6qm8rsb3za,6qm8rsb3za.csv,189,html-keyboard-response,reading,1555.0, ,f21,filler,False,1,The gardener planted,0.0,other,,,,,194088
6qm8rsb3za,6qm8rsb3za.csv,190,html-keyboard-response,reading,408.0, ,f21,filler,False,1,a row of rose bushes,1.0,other,,,,,194496
6qm8rsb3za,6qm8rsb3za.csv,191,html-keyboard-response,reading,564.0, ,f21,filler,False,1,along the garden fence.,2.0,other,,,,,195060
6qm8rsb3za,6qm8rsb3za.csv,192,html-keyboard-response,sentence_break,,,f21,,,,,,,,,,,196062
6qm8rsb3za,6qm8rsb3za.csv,193,html-keyboard-response,reading,562.0, ,f21,filler,False,1,By the following spring,4.0,other,,,,,196624
6qm8rsb3za,6qm8rsb3za.csv,194,html-keyboard-response,reading,433.0, ,f21,filler,False,1,the bushes had grown,5.0,other,,,,,197058
6qm8rsb3za,6qm8rsb3za.csv,195,html-keyboard-response,reading,640.0, ,f21,filler,False,1,and were covered in flowers.,6.0,other,,,,,197699
6qm8rsb3za,6qm8rsb3za.csv,196,html-keyboard-response,comprehension,2051.0,f,f21,,,,,,,yes,Were the rose bushes planted along the fence?,yes,True,199751
6qm8rsb3za,6qm8rsb3za.csv,197,html-keyboard-response,reading,455.0, ,f12,filler,False,1,Rachel volunteered,0.0,other,,,,,200206
6qm8rsb3za,6qm8rsb3za.csv,198,html-keyboard-response,reading,457.0, ,f12,filler,False,1,at the animal shelter,1.0,other,,,,,200663
6qm8rsb3za,6qm8rsb3za.csv,199,html-keyboard-response,reading,2666.0, ,f12,filler,False,1,every Saturday afternoon.,2.0,other,,,,,203331
6qm8rsb3za,6qm8rsb3za.csv,200,html-keyboard-response,sentence_break,,,f12,,,,,,,,,,,204332
6qm8rsb3za,6qm8rsb3za.csv,201,html-keyboard-response,reading,342.0, ,f12,filler,False,1,She enjoyed spending time,4.0,other,,,,,204675
6qm8rsb3za,6qm8rsb3za.csv,202,html-keyboard-response,reading,420.0, ,f12,filler,False,1,with the dogs,5.0,other,,,,,205095
6qm8rsb3za,6qm8rsb3za.csv,203,html-keyboard-response,reading,656.0, ,f12,filler,False,1,and taking them for walks.,6.0,other,,,,,205752
6qm8rsb3za,6qm8rsb3za.csv,204,html-keyboard-response,reading,543.0, ,f26,filler,False,1,The architect presented,0.0,other,,,,,206295
6qm8rsb3za,6qm8rsb3za.csv,205,html-keyboard-response,reading,915.0, ,f26,filler,False,1,her design for the new library,1.0,other,,,,,207210
6qm8rsb3za,6qm8rsb3za.csv,206,html-keyboard-response,reading,445.0, ,f26,filler,False,1,to the town council.,2.0,other,,,,,207656
6qm8rsb3za,6qm8rsb3za.csv,207,html-keyboard-response,sentence_break,,,f26,,,,,,,,,,,208659
6qm8rsb3za,6qm8rsb3za.csv,208,html-keyboard-response,reading,494.0, ,f26,filler,False,1,The councillors were enthusiastic,4.0,other,,,,,209154
6qm8rsb3za,6qm8rsb3za.csv,209,html-keyboard-response,reading,446.0, ,f26,filler,False,1,and approved the project,5.0,other,,,,,209601
6qm8rsb3za,6qm8rsb3za.csv,210,html-keyboard-response,reading,497.0, ,f26,filler,False,1,without any objections.,6.0,other,,,,,210099
6qm8rsb3za,6qm8rsb3za.csv,211,html-keyboard-response,comprehension,2019.0,f,f26,,,,,,,yes,Did the council approve the library project?,yes,True,212118
6qm8rsb3za,6qm8rsb3za.csv,212,html-keyboard-response,reading,800.0, ,f35,filler,False,1,The postman delivered,0.0,other,,,,,212919
6qm8rsb3za,6qm8rsb3za.csv,213,html-keyboard-response,reading,2056.0, ,f35,filler,False,1,a large parcel,1.0,other,,,,,214976
6qm8rsb3za,6qm8rsb3za.csv,214,html-keyboard-response,reading,824.0, ,f35,filler,False,1,to the wrong address.,2.0,other,,,,,215800
6qm8rsb3za,6qm8rsb3za.csv,215,html-keyboard-response,sentence_break,,,f35,,,,,,,,,,,216802
6qm8rsb3za,6qm8rsb3za.csv,216,html-keyboard-response,reading,354.0, ,f35,filler,False,1,He realised his mistake,4.0,other,,,,,217158
6qm8rsb3za,6qm8rsb3za.csv,217,html-keyboard-response,reading,519.0, ,f35,filler,False,1,and returned later,5.0,other,,,,,217678
6qm8rsb3za,6qm8rsb3za.csv,218,html-keyboard-response,reading,585.0, ,f35,filler,False,1,to collect it and redeliver it.,6.0,other,,,,,218264
6qm8rsb3za,6qm8rsb3za.csv,219,html-keyboard-response,reading,542.0, ,6,upper_bound_some,True,1,The professor was trying to determine,0.0,other,,,,,218806
6qm8rsb3za,6qm8rsb3za.csv,220,html-keyboard-response,reading,730.0, ,6,upper_bound_some,True,1,whether Tom had read,1.0,other,,,,,219536
6qm8rsb3za,6qm8rsb3za.csv,221,html-keyboard-response,reading,688.0, ,6,upper_bound_some,True,1,all the chapters,2.0,other,,,,,220225
6qm8rsb3za,6qm8rsb3za.csv,222,html-keyboard-response,reading,425.0, ,6,upper_bound_some,True,1,before the exam.,3.0,other,,,,,220650
6qm8rsb3za,6qm8rsb3za.csv,223,html-keyboard-response,sentence_break,,,6,,,,,,,,,,,221652
6qm8rsb3za,6qm8rsb3za.csv,224,html-keyboard-response,reading,367.0, ,6,upper_bound_some,True,1,Tom admitted,5.0,other,,,,,222020
6qm8rsb3za,6qm8rsb3za.csv,225,html-keyboard-response,reading,668.0, ,6,upper_bound_some,True,1,that he had read,6.0,other,,,,,222689
6qm8rsb3za,6qm8rsb3za.csv,226,html-keyboard-response,reading,437.0, ,6,upper_bound_some,True,1,some of the chapters.,7.0,trigger,,,,,223127
6qm8rsb3za,6qm8rsb3za.csv,227,html-keyboard-response,sentence_break,,,6,,,,,,,,,,,224128
